ZATTITUDEW,ZATTITUDEX,ZATTITUDEY,ZATTITUDEZ,ZGRAVITYX,ZGRAVITYY,ZGRAVITYZ,ZROTATIONRATEX,ZROTATIONRATEY,ZROTATIONRATEZ,ZTIMESTAMP,ZUSERACCELERATIONX,ZUSERACCELERATIONY,ZUSERACCELERATIONZ,ZLABEL
-0.366137683391571,0.006940213032067,-0.925643503665924,-0.095283806324005,0.679148495197296,-0.171315521001816,0.713728129863739,-0.287514269351959,-0.045080438256264,0.312563687562943,1490025068.263988018035889,0.171957671642303,0.624158740043640,-0.761862814426422,balanced
-0.366124898195267,0.006115787662566,-0.925465047359467,-0.097105257213116,0.678859353065491,-0.175256758928299,0.713045895099640,-0.286788314580917,-0.023428410291672,0.281457960605621,1490025068.273816108703613,0.195012152194977,0.618685960769653,-0.760546147823334,balanced
-0.365993827581406,0.005414004437625,-0.925336182117462,-0.098853528499603,0.678405046463013,-0.178982511162758,0.712552726268768,-0.274256080389023,0.005650646984577,0.259031236171722,1490025068.283643007278442,0.195466458797455,0.622411668300629,-0.760052978992462,balanced
-0.365754932165146,0.004719480406493,-0.925273776054382,-0.100345425307751,0.677794039249420,-0.182241633534432,0.712307691574097,-0.214214324951172,0.031849227845669,0.240189626812935,1490025068.293468952178955,0.220201671123505,0.644139587879181,-0.784167230129242,balanced
-0.365429073572159,0.003997671883553,-0.925295948982239,-0.101354435086250,0.677070438861847,-0.184643968939781,0.712377130985260,-0.105653777718544,0.051181912422180,0.211809918284416,1490025068.303296089172363,0.220925331115723,0.646541893482208,-0.784236729145050,balanced
-0.365044146776199,0.003138693515211,-0.925409018993378,-0.101739518344402,0.676268935203552,-0.186009809374809,0.712783396244049,0.024330589920282,0.064279340207577,0.193158999085426,1490025068.313122987747192,0.238908827304840,0.664855360984802,-0.827400445938110,balanced
-0.364644169807434,0.002197990426794,-0.925593137741089,-0.101522982120514,0.675470590591431,-0.186334982514381,0.713454961776733,0.139758110046387,0.071121267974377,0.162404283881187,1490025068.322948932647705,0.239707171916962,0.665180563926697,-0.828072071075439,balanced
-0.364246040582657,0.001246088882908,-0.925816059112549,-0.100934423506260,0.674701213836670,-0.185985654592514,0.714273869991302,0.199317321181297,0.072508774697781,0.138613477349281,1490025068.332776069641113,0.234920978546143,0.651734709739685,-0.845192551612854,balanced
-0.363761723041534,0.000346421875292,-0.926096320152283,-0.100113309919834,0.673826158046722,-0.185177102684975,0.715309023857117,0.234110444784164,0.105064056813717,0.114907331764698,1490025068.342571020126343,0.235796034336090,0.650926232337952,-0.846227765083313,balanced
-0.363070249557495,-0.000370820693206,-0.926456570625305,-0.099285803735256,0.672663986682892,-0.184237241744995,0.716643810272217,0.207656472921371,0.155300065875053,0.076654754579067,1490025068.352399110794067,0.217140138149262,0.618468463420868,-0.847720265388489,balanced
-0.362162202596664,-0.000811656354927,-0.926887154579163,-0.098577976226807,0.671206951141357,-0.183329224586487,0.718240916728973,0.161780327558518,0.204573333263397,0.041926600039005,1490025068.362226009368896,0.218597233295441,0.617560446262360,-0.849317312240601,balanced
-0.361128628253937,-0.000990110449493,-0.927355349063873,-0.097962163388729,0.669595122337341,-0.182406589388847,0.719977855682373,0.131264761090279,0.232508569955826,-0.001274396898225,1490025068.372051954269409,0.243843913078308,0.588971436023712,-0.841228187084198,balanced
-0.360045224428177,-0.000931304472033,-0.927835524082184,-0.097402244806290,0.667944073677063,-0.181417152285576,0.721759259700775,0.106493219733238,0.243126317858696,-0.042186941951513,1490025068.381879091262817,0.245494961738586,0.587981998920441,-0.843009769916534,balanced
-0.359009712934494,-0.000638337514829,-0.928303956985474,-0.096761085093021,0.666416764259338,-0.180105730891228,0.723497271537781,0.110332965850830,0.230933576822281,-0.096298910677433,1490025068.391705989837646,0.300371468067169,0.571442723274231,-0.842048227787018,balanced
-0.358109593391419,-0.000125714170281,-0.928734004497528,-0.095967456698418,0.665152966976166,-0.178346514701843,0.725093722343445,0.127009972929955,0.203782901167870,-0.149173587560654,1490025068.401531934738159,0.301635205745697,0.569683492183685,-0.843644678592682,balanced
-0.357407242059708,0.000575563346501,-0.929102361202240,-0.095013707876205,0.664245188236237,-0.176143497228622,0.726463079452515,0.138702586293220,0.163119107484818,-0.201016545295715,1490025068.411359071731567,0.333705246448517,0.540802478790283,-0.856305778026581,balanced
-0.356855422258377,0.001450253417715,-0.929421126842499,-0.093953661620617,0.663610458374023,-0.173609972000122,0.727651476860046,0.143621012568474,0.140100345015526,-0.239679783582687,1490025068.421185016632080,0.334339976310730,0.538268983364105,-0.857494175434113,balanced
-0.356292843818665,0.002496814820915,-0.929738163948059,-0.092924103140831,0.662982165813446,-0.171010971069336,0.728838562965393,0.116373673081398,0.157171204686165,-0.267314314842224,1490025068.431011915206909,0.313695371150971,0.482325881719589,-0.869171679019928,balanced
-0.355649650096893,0.003676300868392,-0.930074334144592,-0.091980300843716,0.662237524986267,-0.168482080101967,0.730103552341461,0.097261786460876,0.169383391737938,-0.285262703895569,1490025068.440841913223267,0.314439952373505,0.479797005653381,-0.870436608791351,balanced
-0.355034589767456,0.004874911624938,-0.930400192737579,-0.090998791158199,0.661535739898682,-0.165869057178497,0.731336593627930,0.111603975296020,0.160578176379204,-0.285258710384369,1490025068.450638055801392,0.291722774505615,0.443855911493301,-0.882390260696411,balanced
-0.354438155889511,0.006000378634781,-0.930722773075104,-0.089951232075691,0.660846829414368,-0.163185790181160,0.732561767101288,0.124851197004318,0.159480690956116,-0.270836085081101,1490025068.460464954376221,0.292411684989929,0.441172659397125,-0.883615374565125,balanced
-0.353809416294098,0.006976743228734,-0.931055665016174,-0.088904432952404,0.660073041915894,-0.160613074898720,0.733826637268066,0.134320601820946,0.162468761205673,-0.238348990678787,1490025068.470290899276733,0.280891835689545,0.413365721702576,-0.896932899951935,balanced
-0.353196829557419,0.007780234795064,-0.931379675865173,-0.087874114513397,0.659288048744202,-0.158192425966263,0.735057294368744,0.142122089862823,0.150606513023376,-0.207081615924835,1490025068.480118036270142,0.281676828861237,0.410945057868958,-0.898163616657257,balanced
-0.352684617042542,0.008421758189797,-0.931653201580048,-0.086966991424561,0.658624351024628,-0.156105697154999,0.736097216606140,0.126629412174225,0.120593480765819,-0.168872445821762,1490025068.489944934844971,0.295092344284058,0.388445019721985,-0.883064568042755,balanced
-0.352365672588348,0.008874177932739,-0.931848704814911,-0.086116373538971,0.658231437206268,-0.154240950942039,0.736841499805450,0.135107561945915,0.071793712675571,-0.130753025412560,1490025068.499771118164062,0.295485258102417,0.386580258607864,-0.883808791637421,balanced
-0.352247297763825,0.009134882129729,-0.931966841220856,-0.085291445255280,0.658123850822449,-0.152542129158974,0.737291276454926,0.138769671320915,0.029101910069585,-0.098550081253052,1490025068.509598016738892,0.304024159908295,0.371040523052216,-0.859577596187592,balanced
-0.352207481861115,0.009299237281084,-0.932044208049774,-0.084589511156082,0.658119142055511,-0.151131808757782,0.737585783004761,0.115235581994057,0.013735204935074,-0.074702538549900,1490025068.519424915313721,0.304028868675232,0.369630217552185,-0.859872043132782,balanced
-0.352161169052124,0.009410970844328,-0.932111859321594,-0.084022410213947,0.658088684082031,-0.150008216500282,0.737842142581940,0.096954315900803,0.016811154782772,-0.053131736814976,1490025068.529251098632812,0.301211237907410,0.353620529174805,-0.857316255569458,balanced
-0.352125287055969,0.009495771490037,-0.932163774967194,-0.083586670458317,0.658064305782318,-0.149145528674126,0.738038957118988,0.074838235974312,0.008545503020287,-0.044817879796028,1490025068.539077997207642,0.301235616207123,0.352757841348648,-0.857513070106506,balanced
-0.352210462093353,0.009591020643711,-0.932165384292603,-0.083197884261608,0.658232688903809,-0.148352265357971,0.738048553466797,0.065784826874733,-0.019838202744722,-0.047417659312487,1490025068.548904895782471,0.306261718273163,0.353104054927826,-0.857021689414978,balanced
-0.352362662553787,0.009744117967784,-0.932135462760925,-0.082870237529278,0.658514440059662,-0.147625654935837,0.737942934036255,0.046308062970638,-0.029750488698483,-0.059561140835285,1490025068.558701038360596,0.305979967117310,0.352377414703369,-0.856916069984436,balanced
-0.352520257234573,0.009947645477951,-0.932099282741547,-0.082582511007786,0.658810734748840,-0.146936699748039,0.737816035747528,0.036748908460140,-0.024750135838985,-0.061971299350262,1490025068.568526983261108,0.286563396453857,0.347472459077835,-0.858406722545624,balanced
-0.352583974599838,0.010222972370684,-0.932088136672974,-0.082403533160686,0.658963501453400,-0.146405801177025,0.737785577774048,0.005823485553265,-0.001048801466823,-0.067959152162075,1490025068.578353881835938,0.286410629749298,0.346941560506821,-0.858376324176788,balanced
-0.352516323328018,0.010562829673290,-0.932111978530884,-0.082380622625351,0.658909738063812,-0.146128788590431,0.737888634204865,-0.027471087872982,0.029041189700365,-0.064309291541576,1490025068.588181018829346,0.264156460762024,0.347395420074463,-0.861289978027344,balanced
-0.352337121963501,0.010926865972579,-0.932164728641510,-0.082503929734230,0.658675491809845,-0.146114632487297,0.738100945949554,-0.053787380456924,0.048045240342617,-0.054690219461918,1490025068.598006963729858,0.264390707015991,0.347381263971329,-0.861502170562744,balanced
-0.352100670337677,0.011252272874117,-0.932235479354858,-0.082670755684376,0.658341944217682,-0.146213352680206,0.738379180431366,-0.047651194036007,0.056862168014050,-0.042603727430105,1490025068.607834100723267,0.265019357204437,0.365656733512878,-0.868018805980682,balanced
-0.351860105991364,0.011422262527049,-0.932319939136505,-0.082719795405865,0.657982051372528,-0.146204546093941,0.738701879978180,-0.014005612581968,0.053185675293207,-0.022075548768044,1490025068.617660999298096,0.265379130840302,0.365647941827774,-0.868341624736786,balanced
-0.351612299680710,0.011473456397653,-0.932413399219513,-0.082713127136230,0.657594025135040,-0.146177232265472,0.739052772521973,0.002762714400887,0.053418967872858,-0.000387830659747,1490025068.627486944198608,0.279289484024048,0.372378826141357,-0.870143771171570,balanced
-0.351368099451065,0.011390757746995,-0.932508707046509,-0.082688368856907,0.657191395759583,-0.146210551261902,0.739404499530792,0.013351442292333,0.050122771412134,0.027262439951301,1490025068.637314081192017,0.279692113399506,0.372412145137787,-0.870495438575745,balanced
-0.351163655519485,0.011124930344522,-0.932584345340729,-0.082740887999535,0.656820416450500,-0.146512374281883,0.739674627780914,0.007871456444263,0.036098033189774,0.066802658140659,1490025068.647140979766846,0.305108904838562,0.385307669639587,-0.860622048377991,balanced
-0.351074457168579,0.010722574777901,-0.932611405849457,-0.082868427038193,0.656609237194061,-0.147039234638214,0.739758014678955,0.005800438113511,0.001988799776882,0.091788969933987,1490025068.656966924667358,0.305320143699646,0.385834574699402,-0.860705494880676,balanced
-0.351140797138214,0.010182126425207,-0.932580351829529,-0.083005115389824,0.656624376773834,-0.147667154669762,0.739619553089142,0.009700903669000,-0.030883926898241,0.120445378124714,1490025068.666763067245483,0.320850372314453,0.397556453943253,-0.850132226943970,balanced
-0.351281136274338,0.009578109718859,-0.932516038417816,-0.083204239606857,0.656744480133057,-0.148449361324310,0.739355802536011,0.000865601003170,-0.045511607080698,0.126334160566330,1490025068.676589965820312,0.320730209350586,0.398338675498962,-0.849868535995483,balanced
-0.351491689682007,0.008956843987107,-0.932416498661041,-0.083498977124691,0.656969070434570,-0.149415135383606,0.738961517810822,-0.015333607792854,-0.062420014292002,0.138188153505325,1490025068.686417102813721,0.308486521244049,0.411293506622315,-0.846978425979614,balanced
-0.351706176996231,0.008316950872540,-0.932310461997986,-0.083845354616642,0.657193362712860,-0.150489553809166,0.738543927669525,-0.024968128651381,-0.058541122823954,0.141777560114861,1490025068.696243047714233,0.308262228965759,0.412367939949036,-0.846560955047607,balanced
-0.351858675479889,0.007675674743950,-0.932224273681641,-0.084224104881287,0.657315373420715,-0.151629999279976,0.738202035427094,-0.028335429728031,-0.043556578457355,0.147857025265694,1490025068.706069946289062,0.280387699604034,0.427042484283447,-0.854520082473755,balanced
-0.351929336786270,0.006994773633778,-0.932167053222656,-0.084621325135231,0.657297670841217,-0.152839094400406,0.737968683242798,-0.025534728541970,-0.024832163006067,0.158749893307686,1490025068.715897083282471,0.280405342578888,0.428251564502716,-0.854286789894104,balanced
-0.351916402578354,0.006241113413125,-0.932146728038788,-0.084957748651505,0.657135903835297,-0.153993472456932,0.737872958183289,-0.004697356373072,-0.008798600174487,0.168531149625778,1490025068.725723028182983,0.264202237129211,0.453200280666351,-0.860686659812927,balanced
-0.351878821849823,0.005426439456642,-0.932147383689880,-0.085162527859211,0.656930088996887,-0.154949158430099,0.737856388092041,0.029010295867920,-0.009096341207623,0.172334417700767,1490025068.735549926757812,0.264408051967621,0.454155981540680,-0.860670208930969,balanced
-0.351854473352432,0.004562428221107,-0.932159245014191,-0.085183307528496,0.656746089458466,-0.155598193407059,0.737883329391479,0.064197316765785,-0.008368499577045,0.165264785289764,1490025068.745377063751221,0.266171216964722,0.468888431787491,-0.855518877506256,balanced
-0.351821213960648,0.003771650139242,-0.932176649570465,-0.085169017314911,0.656561493873596,-0.156131252646446,0.737935066223145,0.056134305894375,-0.004974833689630,0.143557891249657,1490025068.755203008651733,0.266355812549591,0.469421476125717,-0.855570614337921,balanced
-0.351822704076767,0.003095237305388,-0.932177603244781,-0.085179671645164,0.656449794769287,-0.156627207994461,0.737929344177246,0.039121232926846,-0.016308981925249,0.123006813228130,1490025068.765029907226562,0.290919363498688,0.470437943935394,-0.835739970207214,balanced
-0.351927131414414,0.002575258724391,-0.932129144668579,-0.085294455289841,0.656522393226624,-0.157198294997215,0.737742722034454,0.005070174112916,-0.037439301609993,0.097493186593056,1490025068.774826049804688,0.290846824645996,0.471009016036987,-0.835553288459778,balanced
-0.352155566215515,0.002248111413792,-0.932022750377655,-0.085523642599583,0.656818509101868,-0.157836586236954,0.737342894077301,-0.029051046818495,-0.061183243989944,0.064793303608894,1490025068.784652948379517,0.318899452686310,0.462774574756622,-0.819197058677673,balanced
-0.352436721324921,0.002084389096126,-0.931885838508606,-0.085861109197140,0.657219529151917,-0.158556267619133,0.736831128597260,-0.065428197383881,-0.064905546605587,0.044285364449024,1490025068.794480085372925,0.318498432636261,0.463494271039963,-0.818685293197632,balanced
-0.352701812982559,0.002100454177707,-0.931740999221802,-0.086342327296734,0.657616198062897,-0.159415706992149,0.736291408538818,-0.101458638906479,-0.059990417212248,0.022553971037269,1490025068.804306030273438,0.328229963779450,0.468188345432281,-0.811738252639771,balanced
-0.352958202362060,0.002214204054326,-0.931597650051117,-0.086836636066437,0.658014595508575,-0.160230562090874,0.735758185386658,-0.102426692843437,-0.055354382842779,0.005759277381003,1490025068.814132928848267,0.327831506729126,0.469003200531006,-0.811205029487610,balanced
-0.353159278631210,0.002373354742303,-0.931481182575226,-0.087262988090515,0.658336639404297,-0.160891324281693,0.735325634479523,-0.091085359454155,-0.039653718471527,-0.007321369834244,1490025068.823960065841675,0.326781272888184,0.478444159030914,-0.809714257717133,balanced
-0.353300452232361,0.002572941360995,-0.931390941143036,-0.087648726999760,0.658572733402252,-0.161452412605286,0.734991431236267,-0.087130561470985,-0.028774440288544,-0.018055241554976,1490025068.833786010742188,0.326545178890228,0.479005277156830,-0.809379994869232,balanced
-0.353438466787338,0.002804456977174,-0.931311726570129,-0.087926790118217,0.658815979957581,-0.161792099475861,0.734698772430420,-0.064008206129074,-0.028010377660394,-0.029975548386574,1490025068.843612909317017,0.320736646652222,0.478619903326034,-0.812117457389832,balanced
-0.353569179773331,0.003072650870308,-0.931241691112518,-0.088133633136749,0.659058332443237,-0.161974638700485,0.734441041946411,-0.059004776179790,-0.022137841209769,-0.043100140988827,1490025068.853440046310425,0.320494234561920,0.478802442550659,-0.811859726905823,balanced
-0.353637397289276,0.003424605587497,-0.931196808815002,-0.088321372866631,0.659216940402985,-0.162067025899887,0.734278440475464,-0.065829396247864,-0.006222524214536,-0.055047348141670,1490025068.863265991210938,0.302524566650391,0.474091768264771,-0.818005621433258,balanced
-0.353655070066452,0.003837490687147,-0.931166708469391,-0.088551133871078,0.659303307533264,-0.162197440862656,0.734172344207764,-0.077532798051834,0.004827196709812,-0.065876290202141,1490025068.873061895370483,0.302438259124756,0.474222183227539,-0.817899525165558,balanced
-0.353617191314697,0.004291944205761,-0.931153118610382,-0.088823482394218,0.659305930137634,-0.162381112575531,0.734129130840302,-0.084540650248528,0.015981847420335,-0.068241447210312,1490025068.882889032363892,0.293066740036011,0.460078120231628,-0.819540083408356,balanced
-0.353579640388489,0.004742534365505,-0.931135416030884,-0.089135453104973,0.659306526184082,-0.162640631198883,0.734071314334869,-0.093108564615250,0.014995679259300,-0.059870865195990,1490025068.892715930938721,0.293066263198852,0.460337638854981,-0.819482266902924,balanced
-0.353558719158173,0.005183419212699,-0.931106746196747,-0.089492298662663,0.659329593181610,-0.162988483905792,0.733973264694214,-0.099356606602669,0.007735368795693,-0.055131237953901,1490025068.902542114257812,0.298545479774475,0.458051085472107,-0.819608986377716,balanced
-0.353598982095718,0.005545471329242,-0.931060850620270,-0.089789994060993,0.659440219402313,-0.163278147578239,0.733810126781464,-0.074218258261681,-0.009667856618762,-0.046799805015326,1490025068.912369012832642,0.298434853553772,0.458340764045715,-0.819445908069611,balanced
-0.353714764118195,0.005796039476991,-0.931003391742706,-0.089913949370384,0.659661591053009,-0.163320094347000,0.733601808547974,-0.034611191600561,-0.023570887744427,-0.040722735226154,1490025068.922195911407471,0.299979329109192,0.458826452493668,-0.824998617172241,balanced
-0.353810161352158,0.005989717785269,-0.930963158607483,-0.089942157268524,0.659845888614655,-0.163227230310440,0.733456552028656,-0.016167493537068,-0.014987786300480,-0.034670170396566,1490025068.932022094726562,0.299794971942902,0.458733588457107,-0.824853420257568,balanced
-0.353836238384247,0.006101073231548,-0.930952310562134,-0.089945279061794,0.659906864166260,-0.163151964545250,0.733418881893158,-0.003888191655278,0.000036703189835,-0.017719682306051,1490025068.941848993301392,0.291005015373230,0.451616942882538,-0.830143928527832,balanced
-0.353797435760498,0.006121931131929,-0.930973172187805,-0.089880384504795,0.659852325916290,-0.163020610809326,0.733497023582458,0.015194496139884,0.013654244132340,-0.004135963506997,1490025068.951675891876221,0.291059494018555,0.451485604047775,-0.830222129821777,balanced
-0.353720754384995,0.006050287745893,-0.931013166904449,-0.089773498475552,0.659723699092865,-0.162880390882492,0.733644247055054,0.030889835208654,0.017470821738243,0.010360687039793,1490025068.961502075195312,0.293176472187042,0.448306173086166,-0.835227251052856,balanced
-0.353660196065903,0.005849529523402,-0.931052863597870,-0.089614629745483,0.659601092338562,-0.162734419107437,0.733787298202515,0.051260866224766,0.009022474288940,0.031939215958118,1490025068.971328973770142,0.293299019336700,0.448160231113434,-0.835370302200317,balanced
-0.353619456291199,0.005476693622768,-0.931094646453857,-0.089364595711231,0.659485220909119,-0.162540465593338,0.733934462070465,0.082367911934853,0.001755240606144,0.057242177426815,1490025068.981125116348267,0.297034978866577,0.457276940345764,-0.834070086479187,balanced
-0.353605151176453,0.005025443155318,-0.931136548519135,-0.089010171592236,0.659403979778290,-0.162207201123238,0.734081029891968,0.102740176022053,-0.002059737220407,0.063340552151203,1490025068.990952014923096,0.297116219997406,0.456943690776825,-0.834216713905334,balanced
-0.353625029325485,0.004505406133831,-0.931172311306000,-0.088583938777447,0.659369885921478,-0.161787375807762,0.734204351902008,0.124289147555828,-0.012108908966184,0.066968575119972,1490025069.000777959823608,0.292737901210785,0.461708605289459,-0.832111537456512,balanced
-0.353691786527634,0.004001240245998,-0.931189417839050,-0.088160596787930,0.659413576126099,-0.161358013749123,0.734259486198425,0.109542690217495,-0.024406854063272,0.062036931514740,1490025069.010605096817017,0.292694211006165,0.461279273033142,-0.832166612148285,balanced
-0.725538134574890,0.086861528456211,-0.681418120861053,0.041458781808615,0.981587290763855,0.182544231414795,-0.056248839944601,0.066982984542847,-0.035174813121557,0.057008348405361,1490025069.020431995391846,-0.027451515197754,0.106464952230454,-0.035087011754513,balanced
-0.725716054439545,0.086589835584164,-0.681268930435181,0.041366305202246,0.981651782989502,0.182042419910431,-0.056749690324068,0.020789118483663,-0.048490885645151,0.045945044606924,1490025069.030257940292358,-0.027515947818756,0.106966763734818,-0.034586153924465,balanced
-0.742444634437561,0.098215050995350,-0.660332560539246,0.055594146251678,0.969600379467010,0.219259724020958,-0.108629427850246,-0.012006111443043,-0.053066730499268,0.046995397657156,1490025069.040085077285767,-0.015638947486877,0.069321334362030,0.020337738096714,balanced
-0.742640733718872,0.098131656646729,-0.660144865512848,0.055351156741381,0.969637513160706,0.218832701444626,-0.109157867729664,-0.013501189649105,-0.059242330491543,0.047027353197336,1490025069.049911975860596,-0.015676081180573,0.069748342037201,0.020866192877293,balanced
-0.745779454708099,0.101617835462093,-0.655740201473236,0.059091471135616,0.966065645217896,0.229066297411919,-0.119357205927372,-0.007315730676055,-0.050539918243885,0.053107082843781,1490025069.059737920761108,-0.018156588077545,0.067685469985008,0.026321850717068,balanced
-0.745945513248444,0.101428210735321,-0.655600130558014,0.058874420821667,0.966140925884247,0.228515997529030,-0.119801573455334,0.011101870797575,-0.043192792683840,0.059152461588383,1490025069.069565057754517,-0.018231868743896,0.068235784769058,0.026766203343868,balanced
-0.746975719928741,0.103377483785152,-0.653930664062500,0.060950465500355,0.964338839054108,0.234155699610710,-0.123375564813614,0.031646292656660,-0.045927859842777,0.056812338531017,1490025069.079391956329346,-0.016366660594940,0.072828814387321,0.032171711325645,balanced
-0.747179269790649,0.103059299290180,-0.653756618499756,0.060860645025969,0.964402258396149,0.233583644032478,-0.123962126672268,0.045983299612999,-0.052311189472675,0.054464232176542,1490025069.089188098907471,-0.016430079936981,0.073400884866714,0.032758221030235,balanced
-0.747461736202240,0.104400552809238,-0.653079748153687,0.062355935573578,0.963284254074097,0.237517639994621,-0.125174731016159,0.050877124071121,-0.049890376627445,0.054496724158525,1490025069.099014043807983,-0.015586793422699,0.065345600247383,0.044018007814884,balanced
-0.747655093669891,0.104100964963436,-0.652912020683289,0.062296312302351,0.963335812091827,0.237011253833771,-0.125737771391869,0.041700474917889,-0.047455184161663,0.045884329825640,1490025069.108840942382812,-0.015638351440430,0.065851986408234,0.044581033289433,balanced
-0.747815608978271,0.103881962597370,-0.652771532535553,0.062207620590925,0.963380992412567,0.236583828926086,-0.126195728778839,0.022539831697941,-0.039949331432581,0.039848275482655,1490025069.118668079376221,-0.015190005302429,0.059325993061066,0.049342237412930,balanced
-0.747954666614532,0.103724554181099,-0.652645945549011,0.062116026878357,0.963413238525391,0.236242070794106,-0.126588970422745,0.013628844171762,-0.037532243877649,0.034077733755112,1490025069.128494024276733,-0.015222251415253,0.059667751193047,0.049735449254513,balanced
-0.748093247413635,0.103595376014710,-0.652514338493347,0.062045492231846,0.963427901268005,0.235969156026840,-0.126986071467400,0.016066435724497,-0.040190078318119,0.025662945583463,1490025069.138320922851562,-0.010057270526886,0.057021081447601,0.055878914892673,balanced
-0.748254299163818,0.103460527956486,-0.652358472347260,0.061967406421900,0.963437676429749,0.235679492354393,-0.127448678016663,0.015107506886125,-0.045031171292067,0.029052617028356,1490025069.148148059844971,-0.010067045688629,0.057310730218887,0.056341506540775,balanced
-0.748401105403900,0.103356525301933,-0.652215301990509,0.061875510960817,0.963446855545044,0.235416591167450,-0.127865254878998,0.006739055737853,-0.039997797459364,0.029049687087536,1490025069.157974004745483,-0.011123478412628,0.062144517898560,0.062606178224087,balanced
-0.748533844947815,0.103261180222034,-0.652083635330200,0.061815313994884,0.963447093963623,0.235206484794617,-0.128248125314712,0.011578456498683,-0.034110881388187,0.017198886722326,1490025069.167800903320312,-0.011123776435852,0.062354624271393,0.062989018857479,balanced
-0.748629689216614,0.103209614753723,-0.651986539363861,0.061765450984240,0.963443398475647,0.235072046518326,-0.128522649407387,0.000913295894861,-0.024153854697943,0.014812959358096,1490025069.177628040313721,-0.015757799148560,0.054357260465622,0.057145856320858,balanced
-0.748706758022308,0.103188209235668,-0.651909291744232,0.061682716012001,0.963447928428650,0.234938487410545,-0.128732934594154,-0.007533453404903,-0.022828400135040,0.014788459055126,1490025069.187453985214233,-0.015762329101562,0.054490819573402,0.057356081902981,balanced
-0.748754382133484,0.103223890066147,-0.651863038539886,0.061532981693745,0.963467240333557,0.234800830483437,-0.128838822245598,-0.027921283617616,-0.012677494436502,0.017171721905470,1490025069.197251081466675,-0.017494440078735,0.052750319242477,0.062047511339188,balanced
-0.748773515224457,0.103264622390270,-0.651848554611206,0.061384450644255,0.963496208190918,0.234670355916023,-0.128859758377075,-0.024073839187622,-0.010258279740810,0.015925895422697,1490025069.207077026367188,-0.017523407936096,0.052880808711052,0.062068432569504,balanced
-0.748793303966522,0.103286787867546,-0.651829600334167,0.061306577175856,0.963506937026978,0.234603792428970,-0.128900021314621,-0.010612092912197,-0.006851297337562,0.007587804459035,1490025069.216903924942017,-0.016642212867737,0.053581953048706,0.061650551855564,balanced
-0.748806416988373,0.103304207324982,-0.651816785335541,0.061252545565367,0.963513910770416,0.234560579061508,-0.128926232457161,-0.006976200267673,-0.004490670748055,0.004047930240631,1490025069.226731061935425,-0.016649127006531,0.053625166416168,0.061676718294621,balanced
-0.747583687305450,0.104468487203121,-0.652965128421783,0.061978016048670,0.963342666625977,0.237136840820312,-0.125445753335953,-0.004329815506935,0.002739278832451,-0.004309335257858,1490025069.236557006835938,-0.012403249740601,0.052526473999023,0.056356757879257,balanced
-0.747539222240448,0.104502670466900,-0.653008222579956,0.062002126127481,0.963339745998383,0.237215489149094,-0.125318899750710,-0.004049118608236,0.015053203329444,-0.006640133913606,1490025069.246383905410767,-0.012400388717651,0.052447825670242,0.056229919195175,balanced
-0.746360361576080,0.105509236454964,-0.654128551483154,0.062685512006283,0.963203430175781,0.239504590630531,-0.121967278420925,0.008038702420890,0.013666495680809,-0.007803402375430,1490025069.256211042404175,-0.011218607425690,0.045164003968239,0.048365361988544,balanced
-0.746294736862183,0.105485245585442,-0.654198765754700,0.062773875892162,0.963206768035889,0.239579349756241,-0.121793672442436,0.014392860233784,0.024753501638770,-0.006550917401910,1490025069.266036987304688,-0.011221945285797,0.045089244842529,0.048191793262959,balanced
-0.745159804821014,0.106375917792320,-0.655289590358734,0.063373729586601,0.963108062744141,0.241590410470962,-0.118559435009956,-0.000031085684896,0.031155474483967,-0.002965237712488,1490025069.275863885879517,-0.013407230377197,0.036972433328629,0.045813731849194,balanced
-0.745062053203583,0.106373839080334,-0.655400514602661,0.063378877937794,0.963144421577454,0.241587325930595,-0.118269540369511,-0.000183541327715,0.030029755085707,0.003070550272241,1490025069.285690069198608,-0.013443589210510,0.036975532770157,0.045523755252361,balanced
-0.744072616100311,0.107174798846245,-0.656342685222626,0.063901588320732,0.963035941123962,0.243374347686768,-0.115455687046051,-0.002578254789114,0.031291294842958,0.003068685997277,1490025069.295516967773438,-0.015213966369629,0.034135133028030,0.038531839847565,balanced
-0.743953406810760,0.107208311557770,-0.656474828720093,0.063876576721668,0.963077187538147,0.243382707238197,-0.115094356238842,-0.014574464410543,0.035058334469795,-0.000559072010219,1490025069.305313110351562,-0.015255153179169,0.034126773476601,0.038170516490936,balanced
-0.743095815181732,0.108001060783863,-0.657272398471832,0.064321115612984,0.962939262390137,0.245063260197639,-0.112657532095909,-0.019588928669691,0.026434754952788,-0.001828867010772,1490025069.315140008926392,-0.014614462852478,0.031562760472298,0.034907519817352,balanced
-0.743011534214020,0.108100011944771,-0.657357096672058,0.064263068139553,0.962954103946686,0.245126679539681,-0.112392067909241,-0.025674663484097,0.020277259871364,-0.004326379857957,1490025069.324966907501221,-0.014629364013672,0.031499356031418,0.034642100334167,balanced
-0.742248654365540,0.108923517167568,-0.658045232295990,0.064644955098629,0.962783694267273,0.246775284409523,-0.110224276781082,-0.038773421198130,0.027696294710040,-0.011541148647666,1490025069.334793090820312,-0.015814602375031,0.030943110585213,0.029777504503727,balanced
-0.742127537727356,0.109091199934483,-0.658158957958221,0.064594723284245,0.962782323360443,0.246946364641190,-0.109851792454720,-0.033808901906013,0.028839588165283,-0.013954771682620,1490025069.344619989395142,-0.015813291072845,0.030772045254707,0.029405035078526,balanced
-0.741468131542206,0.109834901988506,-0.658740818500519,0.064973980188370,0.962597846984863,0.248480185866356,-0.107993654906750,-0.031361989676952,0.030049994587898,-0.013938525691628,1490025069.354446887969971,-0.012883722782135,0.024538666009903,0.022775948047638,balanced
-0.741336524486542,0.110011450946331,-0.658866703510284,0.064900599420071,0.962604284286499,0.248632699251175,-0.107584297657013,-0.043591201305389,0.033991739153862,-0.007883030921221,1490025069.364273071289062,-0.012890160083771,0.024386137723923,0.022366583347321,balanced
-0.740760684013367,0.110708698630333,-0.659373342990875,0.065145798027515,0.962451279163361,0.249928101897240,-0.105940759181976,-0.044948883354664,0.030456926673651,0.000500333611853,1490025069.374099969863892,-0.007039546966553,0.024127990007401,0.020620688796043,balanced
-0.740646481513977,0.110775202512741,-0.659502804279327,0.065020389854908,0.962511599063873,0.249852791428566,-0.105569809675217,-0.026978256180882,0.030512854456902,0.013819334097207,1490025069.383927106857300,-0.007099747657776,0.024203315377235,0.020249769091606,balanced
-0.740218341350555,0.111186936497688,-0.659883022308350,0.065335094928741,0.962386190891266,0.250832259654999,-0.104383721947670,0.013927364721894,0.020282052457333,0.018721150234342,1490025069.393753051757812,-0.002866268157959,0.029372811317444,0.015511959791183,balanced
-0.740185260772705,0.110974207520485,-0.659954309463501,0.065352268517017,0.962472081184387,0.250541955232620,-0.104290068149567,0.036980725824833,0.020276727154851,0.030748251825571,1490025069.403579950332642,-0.002952098846436,0.029663085937500,0.015418320894241,balanced
-0.739848494529724,0.111170664429665,-0.660262763500214,0.065714552998543,0.962377786636353,0.251276642084122,-0.103388331830502,0.039420716464520,0.024096500128508,0.037986990064383,1490025069.413376092910767,-0.005058109760284,0.030731081962585,0.014897964894772,balanced
-0.739820599555969,0.110904403030872,-0.660340964794159,0.065693147480488,0.962496399879456,0.250858485698700,-0.103300049901009,0.034187771379948,0.018023692071438,0.041645638644695,1490025069.423202991485596,-0.005176723003387,0.031149238348007,0.014809690415859,balanced
-0.739531338214874,0.111117713153362,-0.660597443580627,0.066009633243084,0.962395370006561,0.251561641693115,-0.102527745068073,0.025826243683696,0.020447703078389,0.034420214593410,1490025069.433028936386108,-0.007582306861877,0.024400711059570,0.016968347132206,balanced
-0.739488840103149,0.110952332615852,-0.660679996013641,0.065938018262386,0.962499022483826,0.251223891973495,-0.102383047342300,0.007859061472118,0.018157383427024,0.033027917146683,1490025069.442874908447266,-0.007685959339142,0.024738460779190,0.016823627054691,balanced
-0.739215195178986,0.111284725368023,-0.660912632942200,0.066114388406277,0.962398290634155,0.251918375492096,-0.101620405912399,-0.017631385475397,0.015999689698219,0.035321164876223,1490025069.452702045440674,-0.008028209209442,0.020048260688782,0.020592540502548,balanced
-0.739160120487213,0.111286327242851,-0.660996317863464,0.065890423953533,0.962498843669891,0.251623481512070,-0.101398445665836,-0.036973007023335,0.013736535795033,0.035198125988245,1490025069.462527990341187,-0.008128702640533,0.020343154668808,0.020370572805405,balanced
-0.738912642002106,0.111712999641895,-0.661196112632751,0.065939128398895,0.962399840354919,0.252289682626724,-0.100679814815521,-0.043132893741131,0.010161242447793,0.038757972419262,1490025069.472354888916016,-0.006731986999512,0.028383731842041,0.021314240992069,balanced
-0.738879263401031,0.111710511147976,-0.661258995532990,0.065686166286469,0.962505459785461,0.251952290534973,-0.100514605641365,-0.032198101282120,0.008837385103106,0.039956662803888,1490025069.482182025909424,-0.006837666034698,0.028721123933792,0.021149016916752,balanced
-0.738682866096497,0.112066902220249,-0.661402821540833,0.065839327871799,0.962377071380615,0.252656430006027,-0.099974632263184,-0.012876868247986,0.003551542758942,0.032792225480080,1490025069.492007970809937,-0.005141556262970,0.038970500230789,0.018939435482025,balanced
-0.738673985004425,0.112029768526554,-0.661429584026337,0.065733171999454,0.962433516979218,0.252462685108185,-0.099920473992825,-0.009342417120934,0.004484448581934,0.019706785678864,1490025069.501835107803345,-0.005198001861572,0.039164274930954,0.018885254859924,balanced
-0.738461792469025,0.112442657351494,-0.661570250988007,0.065996587276459,0.962247014045715,0.253391981124878,-0.099362902343273,-0.009159192442894,0.009245114400983,0.010124731808901,1490025069.511662006378174,-0.005943655967712,0.038155198097229,0.019582323729992,balanced
-0.738417565822601,0.112477712333202,-0.661618769168854,0.065945468842983,0.962267041206360,0.253372550010681,-0.099218733608723,-0.015012964606285,0.011624915525317,0.001670792931691,1490025069.521457910537720,-0.005963742733002,0.038174629211426,0.019438140094280,balanced
-0.738177835941315,0.112972110509872,-0.661774635314941,0.066220201551914,0.962052643299103,0.254432708024979,-0.098583266139030,-0.024660266935825,0.012940250337124,0.000440412550233,1490025069.531284093856812,-0.007160723209381,0.032548129558563,0.023616321384907,balanced
-0.738095343112946,0.113081760704517,-0.661857843399048,0.066120505332947,0.962074339389801,0.254455000162125,-0.098313421010971,-0.035236768424511,0.021761439740658,0.002780265640467,1490025069.541110992431641,-0.007182419300079,0.032525837421417,0.023346431553364,balanced
-0.737791717052460,0.113599725067615,-0.662090122699738,0.066295444965363,0.961906909942627,0.255412995815277,-0.097463540732861,-0.043716542422771,0.024460285902023,0.009971067309380,1490025069.550937891006470,-0.006549239158630,0.027573883533478,0.024748921394348,balanced
-0.737699449062347,0.113692834973335,-0.662195622920990,0.066109485924244,0.961970329284668,0.255297094583511,-0.097141794860363,-0.040209956467152,0.023414995521307,0.021990979090333,1490025069.560764074325562,-0.006612598896027,0.027689754962921,0.024427175521851,balanced
-0.737412571907043,0.114148043096065,-0.662424087524414,0.066236667335033,0.961838126182556,0.256101936101914,-0.096329107880592,-0.037821631878614,0.020871676504612,0.019582947716117,1490025069.570590972900391,-0.005065262317657,0.029131352901459,0.021087571978569,balanced
-0.737315893173218,0.114260330796242,-0.662534952163696,0.066009789705276,0.961910486221313,0.255959510803223,-0.095984026789665,-0.054898861795664,0.023582775145769,0.023210439831018,1490025069.580418109893799,-0.005137622356415,0.029273778200150,0.020742520689964,balanced
-0.737021863460541,0.114769332110882,-0.662768125534058,0.066070728003979,0.961783409118652,0.256754159927368,-0.095132827758789,-0.052510540932417,0.021039456129074,0.020802410319448,1490025069.590244054794312,-0.005805313587189,0.027753710746765,0.018160924315453,balanced
-0.736931800842285,0.114909663796425,-0.662866353988647,0.065845333039761,0.961842060089111,0.256654471158981,-0.094807930290699,-0.056057743728161,0.018472701311111,0.013530115596950,1490025069.600070953369141,-0.005863964557648,0.027853369712830,0.017836079001427,balanced
-0.736660182476044,0.115513779222965,-0.663055658340454,0.065921835601330,0.961663663387299,0.257608503103256,-0.094027519226074,-0.067068584263325,0.011080299504101,0.008640818297863,1490025069.609898090362549,-0.002172946929932,0.030799806118011,0.019775442779064,balanced
-0.736606478691101,0.115712165832520,-0.663105785846710,0.065669059753418,0.961698591709137,0.257559716701508,-0.093802824616432,-0.062403261661530,0.003659134730697,0.011018488556147,1490025069.619693994522095,-0.002207934856415,0.030848562717438,0.019550733268261,balanced
-0.736393749713898,0.116284690797329,-0.663224995136261,0.065839588642120,0.961477220058441,0.258595556020737,-0.093220956623554,-0.041652441024780,0.004334245808423,-0.006917634978890,1490025069.629520893096924,-0.008214056491852,0.036398112773895,0.013475172221661,balanced
-0.736321985721588,0.116447567939758,-0.663281917572021,0.065780878067017,0.961458086967468,0.258748352527618,-0.092994123697281,-0.034171868115664,0.018943281844258,-0.013939857482910,1490025069.639347076416016,-0.008194863796234,0.036245316267014,0.013248376548290,balanced
-0.736041247844696,0.117022849619389,-0.663469433784485,0.066009916365147,0.961232423782349,0.259858399629593,-0.092227928340435,-0.047349452972412,0.026545541360974,-0.011543812230229,1490025069.649173974990845,-0.009391248226166,0.033090472221375,0.010640554130077,balanced
-0.735961914062500,0.117216393351555,-0.663532197475433,0.065919972956181,0.961215078830719,0.260013639926910,-0.091970682144165,-0.043851152062416,0.012920010834932,-0.011681764386594,1490025069.659001111984253,-0.009373843669891,0.032935261726379,0.010383300483227,balanced
-0.735743463039398,0.117777310311794,-0.663656234741211,0.066109888255596,0.960988998413086,0.261056244373321,-0.091377817094326,-0.047586761415005,0.008014468476176,-0.011724107898772,1490025069.668827056884766,-0.003928959369659,0.028145730495453,0.013346917927265,balanced
-0.735684096813202,0.118030183017254,-0.663692772388458,0.065952867269516,0.960967600345612,0.261210739612579,-0.091161556541920,-0.064681455492973,0.005763031542301,-0.009362949058414,1490025069.678653955459595,-0.003907561302185,0.027991235256195,0.013130672276020,balanced
-0.735505163669586,0.118647135794163,-0.663774847984314,0.066015183925629,0.960754632949829,0.262169599533081,-0.090651616454124,-0.074567109346390,-0.002740707714111,-0.007046798244119,1490025069.688479900360107,-0.004995048046112,0.022605270147324,0.011371769011021,balanced
-0.735450744628906,0.119024232029915,-0.663794934749603,0.065740831196308,0.960727453231812,0.262349784374237,-0.090419031679630,-0.101150244474411,-0.001269311411306,-0.009541913866997,1490025069.698307037353516,-0.004967868328094,0.022425085306168,0.011139251291752,balanced
-0.735269427299500,0.119755990803242,-0.663866698741913,0.065714687108994,0.960502326488495,0.263357430696487,-0.089879021048546,-0.101114287972450,-0.000056241406128,-0.010736075229943,1490025069.708133935928345,-0.006416320800781,0.029718667268753,0.009182929992676,balanced
-0.735217869281769,0.120116785168648,-0.663883149623871,0.065466642379761,0.960470199584961,0.263548403978348,-0.089662246406078,-0.081677094101906,-0.001538290642202,-0.013109751045704,1490025069.717959880828857,-0.006384193897247,0.029527664184570,0.008966207504272,balanced
-0.735097467899323,0.120704457163811,-0.663895547389984,0.065611943602562,0.960216581821442,0.264578044414520,-0.089346274733543,-0.050203055143356,-0.003175335470587,-0.016603285446763,1490025069.727756977081299,-0.006674051284790,0.035411477088928,0.001759640872478,balanced
-0.735082447528839,0.120893105864525,-0.663880944252014,0.065580219030380,0.960158050060272,0.264807701110840,-0.089293897151947,-0.032171566039324,-0.003444314934313,-0.020066993311048,1490025069.737582921981812,-0.006615579128265,0.035181820392609,0.001707248389721,balanced
-0.734966099262238,0.121435910463333,-0.663889408111572,0.065795168280602,0.959892630577087,0.265863984823227,-0.089008346199989,-0.047822162508965,0.001711565069854,-0.017694381996989,1490025069.747410058975220,-0.004222273826599,0.033767938613892,0.008037231862545,balanced
-0.734945476055145,0.121643021702766,-0.663883686065674,0.065699607133865,0.959852814674377,0.266035765409470,-0.088922850787640,-0.045545160770416,-0.003166280686855,-0.012908682227135,1490025069.757236957550049,-0.004182457923889,0.033596128225327,0.007951699197292,balanced
-0.734839022159576,0.122213214635849,-0.663880169391632,0.065867483615875,0.959590375423431,0.267070323228836,-0.088654100894928,-0.053936250507832,-0.000673562055454,-0.016530048102140,1490025069.767062902450562,-0.002012073993683,0.026728987693787,0.010879784822464,balanced
-0.734798729419708,0.122495509684086,-0.663884997367859,0.065744660794735,0.959536850452423,0.267312884330750,-0.088503122329712,-0.062189407646656,0.000568802701309,-0.021432396024466,1490025069.776890039443970,-0.001958549022675,0.026486426591873,0.010728806257248,balanced
-0.734685361385345,0.123138457536697,-0.663883209228516,0.065829530358315,0.959278285503387,0.268342286348343,-0.088192008435726,-0.081702657043934,-0.006665407679975,-0.022749328985810,1490025069.786716938018799,0.004675388336182,0.026061743497849,0.014537774026394,balanced
-0.734675049781799,0.123523443937302,-0.663841962814331,0.065638095140457,0.959200561046600,0.268645823001862,-0.088111616671085,-0.082072012126446,-0.017843494191766,-0.025144308805466,1490025069.796542882919312,0.004753112792969,0.025758206844330,0.014457367360592,balanced
-0.734606444835663,0.124162383377552,-0.663787961006165,0.065746374428272,0.958919346332550,0.269704282283783,-0.087938487529755,-0.065158814191818,-0.020540211349726,-0.027498010545969,1490025069.806370019912720,0.003853976726532,0.033218979835510,0.010411329567432,balanced
-0.734615206718445,0.124430559575558,-0.663735568523407,0.065671108663082,0.958837509155273,0.269993662834167,-0.087944261729717,-0.042055472731590,-0.012135541066527,-0.027325438335538,1490025069.816196918487549,0.003935873508453,0.032929599285126,0.010417111217976,balanced
-0.734527349472046,0.124909415841103,-0.663718283176422,0.065918661653996,0.958570718765259,0.271001607179642,-0.087751358747482,-0.024888208135962,0.000136837596074,-0.022384742274880,1490025069.826023101806641,-0.006643474102020,0.034775525331497,0.007085330784321,balanced
-0.734486818313599,0.125050112605095,-0.663732528686523,0.065959297120571,0.958509147167206,0.271253973245621,-0.087643198668957,-0.014899369329214,0.009880810976028,-0.024729920551181,1490025069.835819005966187,-0.006581902503967,0.034523159265518,0.006977148354053,balanced
-0.734361410140991,0.125456616282463,-0.663759469985962,0.066312350332737,0.958240032196045,0.272291898727417,-0.087368004024029,-0.005098404362798,0.013394853100181,-0.029477538540959,1490025069.845645904541016,-0.007840633392334,0.030617594718933,0.009566418826580,balanced
-0.734297096729279,0.125606417655945,-0.663793265819550,0.066402442753315,0.958161771297455,0.272619843482971,-0.087203055620193,-0.015952650457621,0.013418288901448,-0.034323696047068,1490025069.855473041534424,-0.007762432098389,0.030289649963379,0.009401492774487,balanced
-0.734158873558044,0.126090347766876,-0.663821160793304,0.066733211278915,0.957871556282043,0.273738533258438,-0.086885377764702,-0.023263826966286,0.009718358516693,-0.037976484745741,1490025069.865298986434937,-0.003863632678986,0.022806674242020,0.011192865669727,balanced
-0.734107375144958,0.126365557312965,-0.663822889328003,0.066763006150723,0.957761466503143,0.274169385433197,-0.086741834878922,-0.041424062103033,0.003619986120611,-0.044123325496912,1490025069.875125885009766,-0.003753542900085,0.022375822067261,0.011049278080463,balanced
-0.733959496021271,0.126921355724335,-0.663861393928528,0.066951289772987,0.957499623298645,0.275203019380570,-0.086358040571213,-0.055903669446707,0.008854695595801,-0.036940779536963,1490025069.884953022003174,-0.005661010742188,0.012751847505569,0.009177461266518,balanced
-0.733848452568054,0.127252027392387,-0.663926422595978,0.066896073520184,0.957417428493500,0.275595545768738,-0.086017251014709,-0.060628630220890,0.021234132349491,-0.038015898317099,1490025069.894778966903687,-0.005578815937042,0.012359321117401,0.008836641907692,balanced
-0.733679771423340,0.127779543399811,-0.663996756076813,0.067043215036392,0.957188487052917,0.276531487703323,-0.085561394691467,-0.046387903392315,0.010071493685246,-0.032019525766373,1490025069.904606103897095,-0.000293731689453,0.019552379846573,0.007323540747166,balanced
-0.733652234077454,0.127955913543701,-0.663989186286926,0.067082092165947,0.957107186317444,0.276833862066269,-0.085491292178631,-0.014971952885389,-0.000140130985528,-0.032031778246164,1490025069.914433002471924,-0.000212430953979,0.019250035285950,0.007253445684910,balanced
-0.733583331108093,0.128301173448563,-0.663966298103333,0.067400485277176,0.956854104995728,0.277742505073547,-0.085375130176544,0.003119166940451,-0.005367383826524,-0.036798037588596,1490025069.924258947372437,0.001978576183319,0.021926015615463,0.006024844944477,balanced
-0.733571529388428,0.128419339656830,-0.663941323757172,0.067550420761108,0.956747353076935,0.278108566999435,-0.085380785167217,0.000848555937409,0.000792241655290,-0.039173841476440,1490025069.934086084365845,0.002085328102112,0.021559953689575,0.006030507385731,balanced
-0.733467221260071,0.128778114914894,-0.663954973220825,0.067864313721657,0.956499516963959,0.279026746749878,-0.085159979760647,-0.011017158627510,0.010739147663116,-0.042765647172928,1490025069.943881988525391,-0.001641392707825,0.011554241180420,0.005027309060097,balanced
-0.733396947383881,0.128995224833488,-0.663985848426819,0.067909322679043,0.956410408020020,0.279391080141068,-0.084966048598289,-0.031663049012423,0.011116784065962,-0.034433148801327,1490025069.953708887100220,-0.001552283763885,0.011189937591553,0.004833415150642,balanced
-0.733290076255798,0.129380330443382,-0.664011955261230,0.068076230585575,0.956211328506470,0.280153483152390,-0.084697708487511,-0.028217982500792,0.003731306176633,-0.030858654528856,1490025069.963535070419312,-0.000158369541168,0.009170234203339,0.007178209722042,balanced
-0.733250379562378,0.129518225789070,-0.664026498794556,0.068100184202194,0.956154942512512,0.280379235744476,-0.084587678313255,-0.016181681305170,0.007467455230653,-0.022346125915647,1490025069.973361968994141,-0.000101983547211,0.008944481611252,0.007068179547787,balanced
-0.733164072036743,0.129755750298500,-0.664056241512299,0.068286977708340,0.956003129482269,0.280957281589508,-0.084385506808758,-0.004165764898062,0.003654607338831,-0.021121071651578,1490025069.983189105987549,0.003311574459076,0.013789832592010,0.004820182919502,balanced
-0.733184516429901,0.129755124449730,-0.664024174213409,0.068381026387215,0.955958902835846,0.281082212924957,-0.084471009671688,0.019815590232611,-0.007560230325907,-0.012721994891763,1490025069.993015050888062,0.003355801105499,0.013664901256561,0.004905655980110,balanced
-0.733180999755859,0.129807576537132,-0.663994491100311,0.068606808781624,0.955844938755035,0.281453996896744,-0.084522619843483,0.028206676244736,-0.010052949190140,-0.009100628085434,1490025070.002841949462891,0.000350475311279,0.012839734554291,0.003576017916203,balanced
-0.733219027519226,0.129763349890709,-0.663949072360992,0.068723417818546,0.955804646015167,0.281547605991364,-0.084666207432747,0.023343622684479,-0.008838813751936,-0.012679385021329,1490025070.012669086456299,0.000390768051147,0.012746125459671,0.003719545900822,balanced
-0.733201503753662,0.129830643534660,-0.663931846618652,0.068948790431023,0.955688297748566,0.281938642263412,-0.084677010774612,0.027027040719986,-0.006405217107385,-0.012651421129704,1490025070.022495031356812,-0.005706489086151,0.013143807649612,0.007262974977493,balanced
-0.733235478401184,0.129761219024658,-0.663890063762665,0.069120392203331,0.955637216567993,0.282067745923996,-0.084824018180370,0.035765379667282,-0.004151650238782,-0.019885897636414,1490025070.032321929931641,-0.005655288696289,0.013014703989029,0.007409960031509,balanced
-0.733192741870880,0.129853591322899,-0.663891792297363,0.069384038448334,0.955501735210419,0.282542407512665,-0.084771469235420,0.022575011476874,0.000887050293386,-0.022309640422463,1490025070.042149066925049,-0.006449043750763,0.009723424911499,0.005728319287300,balanced
-0.733196198940277,0.129849418997765,-0.663876354694366,0.069502137601376,0.955453634262085,0.282691866159439,-0.084814630448818,0.011400823481381,0.001103831455112,-0.016234969720244,1490025070.051944971084595,-0.006400942802429,0.009573996067047,0.005771413445473,balanced
-0.733125805854797,0.130025357007980,-0.663904607295990,0.069646000862122,0.955339729785919,0.283126503229141,-0.084648154675961,-0.006715862080455,0.001203966327012,-0.021108288317919,1490025070.061770915985107,-0.003390014171600,0.002593487501144,0.009844377636909,balanced
-0.733122527599335,0.130169749259949,-0.663880884647369,0.069637104868889,0.955282747745514,0.283322244882584,-0.084636017680168,-0.028458079323173,-0.005900282412767,-0.017737526446581,1490025070.071598052978516,-0.003333032131195,0.002397716045380,0.009832158684731,balanced
-0.733074426651001,0.130429148674011,-0.663886547088623,0.069604322314262,0.955199658870697,0.283647298812866,-0.084485776722431,-0.040784254670143,-0.014332649298012,-0.013027725741267,1490025070.081424951553345,0.001791656017303,-0.000145673751831,0.013240993022919,balanced
-0.733101665973663,0.130644246935844,-0.663824975490570,0.069500796496868,0.955142617225647,0.283823758363724,-0.084536962211132,-0.043279901146889,-0.019319683313370,-0.016669597476721,1490025070.091250896453857,0.001848638057709,-0.000322133302689,0.013292193412781,balanced
-0.733095645904541,0.130921900272369,-0.663780927658081,0.069462582468987,0.955041468143463,0.284172415733337,-0.084508672356606,-0.033821687102318,-0.030568610876799,-0.017899446189404,1490025070.101078033447266,0.001041769981384,0.010129988193512,0.013340130448341,balanced
-0.733164787292480,0.131077527999878,-0.663675308227539,0.069448545575142,0.954960465431213,0.284385412931442,-0.084707535803318,-0.018277034163475,-0.027135528624058,-0.022479549050331,1490025070.110904932022095,0.001122832298279,0.009916990995407,0.013539031147957,balanced
-0.733151257038116,0.131257280707359,-0.663643479347229,0.069556303322315,0.954842567443848,0.284784048795700,-0.084697715938091,-0.002395007759333,-0.019862968474627,-0.021176198497415,1490025070.120731115341187,-0.004299819469452,0.011406511068344,0.010745696723461,balanced
-0.733180046081543,0.131353810429573,-0.663587987422943,0.069599829614162,0.954774558544159,0.284983217716217,-0.084794320166111,-0.010437652468681,-0.009850015863776,-0.020057670772076,1490025070.130558013916016,-0.004231810569763,0.011207342147827,0.010842315852642,balanced
-0.733078300952911,0.131575673818588,-0.663650631904602,0.069655068218708,0.954685926437378,0.285363793373108,-0.084511362016201,-0.024675447493792,0.003899085335433,-0.020032905042171,1490025070.140384912490845,-0.008223712444305,0.002756148576736,0.011222250759602,balanced
-0.733032524585724,0.131737306714058,-0.663675487041473,0.069594711065292,0.954654991626740,0.285512059926987,-0.084360256791115,-0.034565605223179,0.005412027239800,-0.010378679260612,1490025070.150211095809937,-0.008192777633667,0.002607882022858,0.011071152985096,balanced
-0.732933163642883,0.131924778223038,-0.663753747940063,0.069539494812489,0.954626321792603,0.285698294639587,-0.084053628146648,-0.030027842149138,-0.005602540448308,-0.002015821170062,1490025070.160007953643799,-0.001177549362183,0.003517478704453,0.016257785260677,balanced
-0.732961595058441,0.132045283913612,-0.663708508014679,0.069442689418793,0.954606533050537,0.285747647285461,-0.084110118448734,-0.024323742836714,-0.018007544800639,-0.000827518524602,1490025070.169833898544312,-0.001157820224762,0.003468126058578,0.016314230859280,balanced
-0.732912957668304,0.132204592227936,-0.663733303546906,0.069415442645550,0.954563379287720,0.285935610532761,-0.083960093557835,-0.020633399486542,-0.018183313310146,-0.008022048510611,1490025070.179661035537720,-0.002214133739471,0.010437875986099,0.018610790371895,balanced
-0.732932627201080,0.132364571094513,-0.663687705993652,0.069338880479336,0.954520702362061,0.286067336797714,-0.083996497094631,-0.034638889133930,-0.013133427128196,-0.011832765303552,1490025070.189487934112549,-0.002171397209167,0.010306090116501,0.018647208809853,balanced
-0.732831001281738,0.132624745368957,-0.663756489753723,0.069257624447346,0.954472124576569,0.286323457956314,-0.083675995469093,-0.047907553613186,-0.011802646331489,-0.014278080314398,1490025070.199314117431641,-0.003561854362488,0.003501802682877,0.017195075750351,balanced
-0.732808113098145,0.132956668734551,-0.663733959197998,0.069079041481018,0.954410195350647,0.286563664674759,-0.083559513092041,-0.083052203059196,-0.009105928242207,-0.021530665457249,1490025070.209141016006470,-0.003499984741211,0.003261595964432,0.017078608274460,balanced
-0.732649147510529,0.133441016077995,-0.663839101791382,0.068819902837276,0.954355537891388,0.286901593208313,-0.083022281527519,-0.109756514430046,-0.009946156293154,-0.015630699694157,1490025070.218967914581299,-0.001921117305756,0.000248730182648,0.022567771375179,balanced
-0.732582509517670,0.133918657898903,-0.663850307464600,0.068491622805595,0.954305648803711,0.287149310112000,-0.082737125456333,-0.118139997124672,-0.002467999700457,-0.016784381121397,1490025070.228794097900391,-0.001871228218079,0.000001013278961,0.022282622754574,balanced
-0.732367932796478,0.134437635540962,-0.664010524749756,0.068214744329453,0.954258799552917,0.287506252527237,-0.082033090293407,-0.110652521252632,0.008601961657405,-0.015491148456931,1490025070.238620996475220,0.000678002834320,0.007934153079987,0.014761887490749,balanced
-0.732277870178223,0.134804055094719,-0.664061069488525,0.067966856062412,0.954230010509491,0.287696331739426,-0.081701524555683,-0.082795202732086,0.008449628949165,-0.008215126581490,1490025070.248447895050049,0.000706791877747,0.007744073867798,0.014430306851864,balanced
-0.732094228267670,0.135116323828697,-0.664212524890900,0.067845799028873,0.954198181629181,0.287963807582855,-0.081130601465702,-0.054847996681929,0.011794826015830,-0.011693481355906,1490025070.258244037628174,0.005115985870361,0.016660451889038,0.010913312435150,balanced
-0.732005476951599,0.135292828083038,-0.664282321929932,0.067768208682537,0.954179465770721,0.288104623556137,-0.080849692225456,-0.035288941115141,0.020219203084707,-0.012772061862051,1490025070.268069982528687,0.005134701728821,0.016519635915756,0.010632455348969,balanced
-0.731803655624390,0.135463878512383,-0.664467692375183,0.067789845168591,0.954153597354889,0.288354247808456,-0.080264449119568,-0.017022054642439,0.026253126561642,-0.010265494696796,1490025070.277896881103516,0.001785635948181,0.013871341943741,0.007519461214542,balanced
-0.731696546077728,0.135492682456970,-0.664576947689056,0.067817866802216,0.954159677028656,0.288419425487518,-0.079958423972130,-0.001446655020118,0.032391447573900,-0.002853917656466,1490025070.287724018096924,0.001779556274414,0.013806164264679,0.007213450968266,balanced
-0.731497764587402,0.135536774992943,-0.664774715900421,0.067936144769192,0.954146742820740,0.288614153862000,-0.079408720135689,0.014350682497025,0.034674309194088,-0.003982032649219,1490025070.297549962997437,0.000571727752686,0.013391435146332,0.004703372716904,balanced
-0.731384873390198,0.135435789823532,-0.664911925792694,0.068009063601494,0.954191327095032,0.288551449775696,-0.079098552465439,0.024193970486522,0.039753489196301,0.008024029433727,1490025070.307377099990845,0.000527143478394,0.013454139232635,0.004393249750137,balanced
-0.731210112571716,0.135337918996811,-0.665104329586029,0.068202510476112,0.954201281070709,0.288644492626190,-0.078639760613441,0.043554086238146,0.038267180323601,0.005686573684216,1490025070.317203998565674,0.005287826061249,0.012024641036987,0.003196947276592,balanced
-0.731117308139801,0.135117813944817,-0.665238261222839,0.068328209221363,0.954269707202911,0.288483023643494,-0.078402467072010,0.044788852334023,0.039677854627371,0.015272888354957,1490025070.327029943466187,0.005219459533691,0.012186080217361,0.002959661185741,balanced
-0.730967402458191,0.134979039430618,-0.665414988994598,0.068485327064991,0.954305171966553,0.288472890853882,-0.078007102012634,0.042270034551620,0.036041308194399,0.017644966021180,1490025070.336857080459595,0.013938486576080,0.011817365884781,-0.000971890985966,balanced
-0.730884790420532,0.134728908538818,-0.665547609329224,0.068570703268051,0.954400360584259,0.288216769695282,-0.077789001166821,0.043431170284748,0.036143042147160,0.023656252771616,1490025070.346683979034424,0.013843297958374,0.012073487043381,-0.001189984381199,balanced
-0.730822145938873,0.134455576539040,-0.665658831596375,0.068695284426212,0.954483509063721,0.287981480360031,-0.077640034258366,0.059098012745380,0.032246038317680,0.022492185235023,1490025070.356509923934937,0.014231741428375,0.016053885221481,-0.008104145526886,balanced
-0.730782628059387,0.134151786565781,-0.665743112564087,0.068893305957317,0.954542696475983,0.287802070379257,-0.077578812837601,0.071140557527542,0.025778019800782,0.014092043042183,1490025070.366306066513062,0.014172554016113,0.016233265399933,-0.008165359497070,balanced
-0.730759084224701,0.133797243237495,-0.665814220905304,0.069144137203693,0.954596996307373,0.287621408700943,-0.077579438686371,0.089300125837326,0.024281589314342,0.010548707097769,1490025070.376132965087891,0.006315290927887,0.017420083284378,-0.019196502864361,balanced
-0.730755269527435,0.133428901433945,-0.665863931179047,0.069417648017406,0.954642534255981,0.287453174591065,-0.077643908560276,0.094053596258163,0.020545439794660,0.011746596544981,1490025070.385960102081299,0.006269752979279,0.017588317394257,-0.019132129848003,balanced
-0.730778217315674,0.133039340376854,-0.665885925292969,0.069712109863758,0.954680979251862,0.287285119295120,-0.077792935073376,0.099906697869301,0.010570837184787,0.010510357096791,1490025070.395786046981812,-0.002714931964874,0.016002357006073,-0.025739535689354,balanced
-0.730838119983673,0.132657438516617,-0.665863633155823,0.070023581385612,0.954698741436005,0.287154525518417,-0.078055255115032,0.099634133279324,-0.000648794695735,0.005676453467458,1490025070.405612945556641,-0.002732694149017,0.016132950782776,-0.025477156043053,balanced
-0.730924129486084,0.132351055741310,-0.665802061557770,0.070290625095367,0.954695522785187,0.287076443433762,-0.078381627798080,0.076404973864555,-0.012834355235100,0.001914472086355,1490025070.415440082550049,-0.006562530994415,0.006711065769196,-0.021595194935799,balanced
-0.731060504913330,0.132103115320206,-0.665683984756470,0.070456467568874,0.954695522785187,0.286954224109650,-0.078827202320099,0.060500115156174,-0.035992939025164,0.008746013045311,1490025070.425266027450562,-0.006562471389771,0.006833285093307,-0.021149650216103,balanced
-0.731282949447632,0.131898477673531,-0.665468931198120,0.070563517510891,0.954677700996399,0.286825865507126,-0.079507783055305,0.050258934497833,-0.061823204159737,0.009760144166648,1490025070.435092926025391,-0.004695773124695,0.002744168043137,-0.008706882596016,balanced
-0.731562554836273,0.131754830479622,-0.665187656879425,0.070585310459137,0.954652845859528,0.286678761243820,-0.080332092940807,0.032651081681252,-0.080105006694794,0.014502968639135,1490025070.444927930831909,-0.004670917987823,0.002891272306442,-0.007882669568062,balanced
-0.731864273548126,0.131583437323570,-0.664892435073853,0.070559270679951,0.954653203487396,0.286431074142456,-0.081207700073719,0.036115318536758,-0.083645150065422,0.025307146832347,1490025070.454754114151001,-0.010505497455597,0.007071256637573,0.002351485192776,balanced
-0.732170581817627,0.131356745958328,-0.664600729942322,0.070551693439484,0.954667329788208,0.286128491163254,-0.082102552056313,0.048068143427372,-0.081195034086704,0.031445998698473,1490025070.464581012725830,-0.010519683361053,0.007373839616776,0.003246329724789,balanced
-0.732442200183868,0.131050422787666,-0.664357960224152,0.070589110255241,0.954706132411957,0.285766601562500,-0.082908578217030,0.064191453158855,-0.061516936868429,0.035223957151175,1490025070.474376916885376,-0.019126534461975,0.018901824951172,0.007153734564781,balanced
-0.732639670372009,0.130725756287575,-0.664197385311127,0.070653304457664,0.954762279987335,0.285405218601227,-0.083505220711231,0.066035665571690,-0.039296586066484,0.034084126353264,1490025070.484204053878784,-0.019182682037354,0.019263207912445,0.007750377058983,balanced
-0.732814490795135,0.130399629473686,-0.664057075977325,0.070760391652584,0.954807043075562,0.285095363855362,-0.084048271179199,0.071018174290657,-0.037081900984049,0.023304449394345,1490025070.494029998779297,-0.016827285289764,0.022555172443390,0.019937217235565,balanced
-0.732968270778656,0.130144730210304,-0.663922667503357,0.070898607373238,0.954814314842224,0.284926295280456,-0.084538079798222,0.057988397777081,-0.029823191463947,0.007680215872824,1490025070.503856897354126,-0.016834616661072,0.022724241018295,0.020427048206329,balanced
-0.733077228069305,0.130007967352867,-0.663816750049591,0.071015357971191,0.954792737960815,0.284894138574600,-0.084890499711037,0.036394152790308,-0.024855330586433,-0.003184682223946,1490025070.513684034347534,-0.016821980476379,0.023755818605423,0.032574146986008,balanced
-0.733135998249054,0.129963994026184,-0.663747251033783,0.071137703955173,0.954743325710297,0.284997463226318,-0.085097894072533,0.021946551278234,-0.011352305300534,-0.015028559602797,1490025070.523509979248047,-0.016772508621216,0.023652493953705,0.032781511545181,balanced
-0.733160853385925,0.129985541105270,-0.663702368736267,0.071261666715145,0.954675197601318,0.285193681716919,-0.085205852985382,0.013656929135323,-0.006502156145871,-0.024642303586006,1490025070.533337116241455,-0.014742970466614,0.021373808383942,0.038368631154299,balanced
-0.733186900615692,0.130061015486717,-0.663644015789032,0.071399465203285,0.954577624797821,0.285485714673996,-0.085321508347988,0.007759603671730,-0.010320862755179,-0.034369766712189,1490025070.543164014816284,-0.014645338058472,0.021081775426865,0.038484323769808,balanced
-0.733214855194092,0.130154862999916,-0.663578629493713,0.071548059582710,0.954466760158539,0.285818487405777,-0.085446231067181,0.006575295701623,-0.009072106331587,-0.034367103129625,1490025070.552989959716797,-0.013545036315918,0.024105727672577,0.043903801590204,balanced
-0.733202815055847,0.130274206399918,-0.663550794124603,0.071712493896484,0.954350054264069,0.286204606294632,-0.085457950830460,0.005858881399035,0.003125703427941,-0.043982978910208,1490025070.562817096710205,-0.013428330421448,0.023719638586044,0.043915484100580,balanced
-0.733159005641937,0.130356296896935,-0.663555741310120,0.071965046226978,0.954221546649933,0.286649435758591,-0.085402026772499,0.023150786757469,0.016405023634434,-0.051048614084721,1490025070.572643995285034,-0.015332818031311,0.023057937622070,0.041611909866333,balanced
-0.733068883419037,0.130438923835754,-0.663605034351349,0.072278589010239,0.954080522060394,0.287170290946960,-0.085228092968464,0.026993751525879,0.029770629480481,-0.060494311153889,1490025070.582439899444580,-0.015191793441772,0.022537052631378,0.041437983512878,balanced
-0.732955038547516,0.130550786852837,-0.663671135902405,0.072623513638973,0.953920066356659,0.287771970033646,-0.084994234144688,0.024710357189178,0.033366698771715,-0.067689910531044,1490025070.592267036437988,-0.013590574264526,0.017053008079529,0.042140033096075,balanced
-0.732829511165619,0.130667373538017,-0.663745403289795,0.073000684380531,0.953746795654297,0.288421541452408,-0.084736153483391,0.028675513342023,0.039402220398188,-0.073719568550587,1490025070.602092981338501,-0.013417303562164,0.016403406858444,0.041881944984198,balanced
-0.732645273208618,0.130814820528030,-0.663878858089447,0.073370568454266,0.953579485416412,0.289100050926208,-0.084304690361023,0.018219145014882,0.059247031807899,-0.076047971844673,1490025070.611920118331909,-0.017397522926331,0.003538697957993,0.037048880010843,balanced
-0.732381463050842,0.130964308977127,-0.664105534553528,0.073686003684998,0.953456699848175,0.289702236652374,-0.083624377846718,0.008654958568513,0.078155212104321,-0.061487674713135,1490025070.621747016906738,-0.017274737358093,0.002936512231827,0.036368552595377,balanced
-0.732109069824219,0.131043821573257,-0.664359748363495,0.073959566652775,0.953383684158325,0.290148258209229,-0.082907281816006,0.019498817622662,0.082045823335648,-0.045807778835297,1490025070.631572961807251,-0.014627397060394,0.000868737697601,0.027809794992208,balanced
-0.731851398944855,0.131008192896843,-0.664614677429199,0.074282154440880,0.953335225582123,0.290495067834854,-0.082248367369175,0.041236869990826,0.081930242478848,-0.039719525724649,1490025070.641400098800659,-0.014578938484192,0.000521928071976,0.027150865644217,balanced
-0.731641232967377,0.130835458636284,-0.664836704730988,0.074667230248451,0.953305661678314,0.290732264518738,-0.081748478114605,0.076041191816330,0.071877874433994,-0.028833586722612,1490025070.651226997375488,-0.008734405040741,0.004140704870224,0.018142446875572,balanced
-0.731466472148895,0.130511745810509,-0.665046274662018,0.075077392160892,0.953321158885956,0.290789812803268,-0.081360273063183,0.103690393269062,0.069432556629181,-0.011924911290407,1490025070.661052942276001,-0.008749902248383,0.004083156585693,0.017754241824150,balanced
-0.731313288211823,0.130061626434326,-0.665247976779938,0.075562186539173,0.953353881835938,0.290766775608063,-0.081058204174042,0.132743090391159,0.071712225675583,-0.005795112811029,1490025070.670880079269409,-0.009610593318939,0.007745444774628,0.013867549598217,balanced
-0.731157600879669,0.129547759890556,-0.665456533432007,0.076113611459732,0.953386485576630,0.290740251541138,-0.080769963562489,0.145109176635742,0.075232118368149,-0.009404760785401,1490025070.680706977844238,-0.009643256664276,0.007771968841553,0.013579301536083,balanced
-0.731008887290955,0.128968894481659,-0.665665328502655,0.076696433126926,0.953431606292725,0.290663123130798,-0.080513387918472,0.163268208503723,0.077626831829548,-0.003315709531307,1490025070.690502882003784,-0.006656110286713,0.001036137342453,0.008164614439011,balanced
-0.730842351913452,0.128380849957466,-0.665892481803894,0.077296748757362,0.953478038311005,0.290594965219498,-0.080211117863655,0.157273039221764,0.082561671733856,-0.006877421401441,1490025070.700329065322876,-0.006702423095703,0.001104295253754,0.007862299680710,balanced
-0.730668962001801,0.127883300185204,-0.666117727756500,0.077818229794502,0.953519821166992,0.290552914142609,-0.079866066575050,0.130467802286148,0.075472868978977,-0.004617462866008,1490025070.710155963897705,0.002944409847260,-0.003057122230530,0.004839025437832,balanced
-0.730516076087952,0.127494469285011,-0.666311562061310,0.078230313956738,0.953554749488831,0.290525048971176,-0.079548127949238,0.102326326072216,0.064615964889526,-0.005951440427452,1490025070.719983100891113,0.002909481525421,-0.003029257059097,0.004521094262600,balanced
-0.730344355106354,0.127193167805672,-0.666519522666931,0.078551389276981,0.953595161437988,0.290501683950424,-0.079147249460220,0.073325298726559,0.068699389696121,-0.002434469759464,1490025070.729809045791626,0.001265347003937,-0.014643460512161,0.001397274434566,balanced
-0.730131030082703,0.126993894577026,-0.666769683361053,0.078734263777733,0.953660905361176,0.290439605712891,-0.078581482172012,0.033382553607225,0.076716035604477,0.007106304634362,1490025070.739635944366455,0.001199603080750,-0.014581352472305,0.000831566751003,balanced
-0.729918897151947,0.126835957169533,-0.667024672031403,0.078796081244946,0.953759491443634,0.290277779102325,-0.077981457114220,0.021007111296058,0.068398185074329,0.017822865396738,1490025070.749463081359863,0.005729973316193,-0.008540749549866,-0.003848224878311,balanced
-0.729769647121429,0.126635029911995,-0.667217016220093,0.078873127698898,0.953853249549866,0.290079802274704,-0.077570043504238,0.039878945797682,0.048413820564747,0.017816474661231,1490025070.759289026260376,0.005636215209961,-0.008342742919922,-0.004259616136551,balanced
-0.729696094989777,0.126303151249886,-0.667343318462372,0.079017765820026,0.953955233097076,0.289789795875549,-0.077400818467140,0.073378317058086,0.033407442271709,0.027467770501971,1490025070.769115924835205,0.008595943450928,0.008319050073624,-0.006009362637997,balanced
-0.729670107364655,0.125861898064613,-0.667430281639099,0.079228065907955,0.954064249992371,0.289433747529984,-0.077391207218170,0.096251942217350,0.028266476467252,0.029927732422948,1490025070.778943061828613,0.008486926555634,0.008675098419189,-0.006018958985806,balanced
-0.729651987552643,0.125331044197082,-0.667520761489868,0.079472757875919,0.954194903373718,0.288995534181595,-0.077416323125362,0.115634158253670,0.033211968839169,0.040841098874807,1490025070.788769006729126,-0.000488460063934,0.011793226003647,-0.006863430142403,balanced
-0.729619204998016,0.124714456498623,-0.667636930942535,0.079766750335693,0.954345345497131,0.288498580455780,-0.077414467930794,0.134184509515762,0.041730619966984,0.043253391981125,1490025070.798564910888672,-0.000638842582703,0.012290179729462,-0.006865218281746,balanced
-0.729585886001587,0.124019727110863,-0.667763292789459,0.080096445977688,0.954514265060425,0.287937015295029,-0.077422581613064,0.149906471371651,0.042892023921013,0.048124846071005,1490025070.808392047882080,0.000433683395386,0.015361249446869,-0.007810555398464,balanced
-0.729574561119080,0.123245656490326,-0.667870759963989,0.080497495830059,0.954681098461151,0.287357628345490,-0.077518314123154,0.172852009534836,0.040177199989557,0.048196483403444,1490025070.818218946456909,0.000266849994659,0.015940636396408,-0.007714889943600,balanced
-0.729565262794495,0.122430510818958,-0.667979717254639,0.080920204520226,0.954855382442474,0.286748200654984,-0.077627733349800,0.178884327411652,0.040159087628126,0.050621822476387,1490025070.828044891357422,0.003141999244690,0.016495615243912,-0.001819163560867,balanced
-0.729562938213348,0.121609210968018,-0.668079495429993,0.081355690956116,0.955024898052216,0.286147296428680,-0.077761977910995,0.180037364363670,0.040096238255501,0.048259865492582,1490025070.837872028350830,0.002972483634949,0.017096519470215,-0.001684933900833,balanced
-0.729561805725098,0.120764091610908,-0.668179273605347,0.081804759800434,0.955197989940643,0.285530239343643,-0.077904984354973,0.187280088663101,0.040065344423056,0.050689734518528,1490025070.847698926925659,-0.000632524490356,0.011620372533798,0.002395242452621,balanced
-0.729555606842041,0.119910866022110,-0.668282270431519,0.082273229956627,0.955367267131805,0.284926772117615,-0.078040383756161,0.184921339154243,0.042539954185486,0.049493707716465,1490025070.857525110244751,-0.000801742076874,0.012223809957504,0.002530723810196,balanced
-0.729548454284668,0.119065545499325,-0.668387234210968,0.082710526883602,0.955545783042908,0.284293502569199,-0.078163802623749,0.183609455823898,0.040195308625698,0.055481560528278,1490025070.867352008819580,-0.000173866748810,0.014787793159485,0.011140197515488,balanced
-0.729584455490112,0.118103154003620,-0.668463110923767,0.083157911896706,0.955758154392242,0.283508449792862,-0.078417427837849,0.213542595505714,0.030262781307101,0.069953441619873,1490025070.877178907394409,-0.000386238098145,0.015572816133499,0.011393815279007,balanced
-0.729630231857300,0.116971433162689,-0.668543279170990,0.083708539605141,0.955995738506317,0.282617360353470,-0.078735135495663,0.251260697841644,0.041081871837378,0.074963912367821,1490025070.887005090713501,-0.003909289836884,0.018517106771469,0.015669234097004,balanced
-0.729627907276154,0.115650683641434,-0.668692171573639,0.084371306002140,0.956277728080750,0.281600803136826,-0.078951396048069,0.294157952070236,0.068104967474937,0.089660570025444,1490025070.896831989288330,-0.004191219806671,0.019533663988113,0.015885479748249,balanced
-0.729605972766876,0.114079922437668,-0.668883025646210,0.085182771086693,0.956606805324554,0.280421406030655,-0.079162538051605,0.360879987478256,0.077427096664906,0.097175210714340,1490025070.906627893447876,-0.001310408115387,0.028251886367798,0.005014836788177,balanced
-0.729653000831604,0.112220831215382,-0.669009208679199,0.086252585053444,0.956930458545685,0.279172092676163,-0.079666323959827,0.439234584569931,0.065491080284119,0.098642341792583,1490025070.916455030441284,-0.001634061336517,0.029501199722290,0.005518615245819,balanced
-0.729783296585083,0.110099233686924,-0.669056117534637,0.087510965764523,0.957262158393860,0.277796655893326,-0.080484136939049,0.504266560077667,0.052601378411055,0.107224382460117,1490025070.926280975341797,0.004372775554657,0.038431525230408,0.011785902082920,balanced
-0.729960501194000,0.107810497283936,-0.669048666954041,0.088927067816257,0.957583665847778,0.276387870311737,-0.081501558423042,0.544118881225586,0.045908052474260,0.102532424032688,1490025070.936108112335205,0.004051327705383,0.039840310811996,0.012803293764591,balanced
-0.730114936828613,0.105503335595131,-0.669052898883820,0.090382799506187,0.957899630069733,0.275000870227814,-0.082474529743195,0.539515614509583,0.055778261274099,0.098967783153057,1490025070.945935010910034,-0.011171758174896,0.028450012207031,0.020813222974539,balanced
-0.730199992656708,0.103295527398586,-0.669111192226410,0.091803446412086,0.958204209804535,0.273706227540970,-0.083240494132042,0.515783011913300,0.071968413889408,0.091726385056973,1490025070.955760955810547,-0.011476337909698,0.029744684696198,0.021579142659903,balanced
-0.730194687843323,0.101315759122372,-0.669247150421143,0.093052119016647,0.958506107330322,0.272510200738907,-0.083686739206314,0.438699156045914,0.087457887828350,0.083113454282284,1490025070.965588092803955,-0.016019940376282,0.004474580287933,0.019175529479980,balanced
-0.730126738548279,0.099820673465729,-0.669411182403564,0.094016887247562,0.958740353584290,0.271635383367539,-0.083849005401134,0.319969028234482,0.079523541033268,0.055060781538486,1490025070.975414991378784,-0.016254127025604,0.005349338054657,0.019337773323059,balanced
-0.730018198490143,0.098815239965916,-0.669586777687073,0.094669587910175,0.958911478519440,0.271052867174149,-0.083778187632561,0.203679457306862,0.070588104426861,0.040152404457331,1490025070.985240936279297,-0.008385539054871,-0.013684004545212,0.014138057827950,balanced
-0.729900956153870,0.098314031958580,-0.669749259948730,0.094945698976517,0.959032237529755,0.270698636770248,-0.083540558815002,0.075112953782082,0.053105778992176,0.023947071284056,1490025070.995068073272705,-0.008506298065186,-0.013329803943634,0.013900473713875,balanced
-0.729756295681000,0.098241731524467,-0.669920325279236,0.094926133751869,0.959105730056763,0.270570933818817,-0.083110637962818,-0.020609574392438,0.043975930660963,0.010317011736333,1490025071.004863977432251,-0.006002366542816,-0.015361756086349,0.017331220209599,balanced
-0.729601263999939,0.098459258675575,-0.670085668563843,0.094725556671619,0.959137499332428,0.270620465278625,-0.082581944763660,-0.074947014451027,0.034424237906933,-0.003267772961408,1490025071.014691114425659,-0.006034135818481,-0.015411287546158,0.016802467405796,balanced
-0.729487359523773,0.098711669445038,-0.670197546482086,0.094548597931862,0.959135174751282,0.270750313997269,-0.082182511687279,-0.059439696371555,0.020524933934212,-0.010496124625206,1490025071.024518013000488,-0.008244991302490,0.008933186531067,0.012148685753345,balanced
-0.729407012462616,0.098851375281811,-0.670268237590790,0.094521597027779,0.959109544754028,0.270915418863297,-0.081937789916992,-0.017165333032608,0.017509702593088,-0.015121236443520,1490025071.034343957901001,-0.008219361305237,0.008768051862717,0.011903949081898,balanced
-0.729350090026855,0.098786041140556,-0.670317769050598,0.094677545130253,0.959087014198303,0.271027296781540,-0.081830814480782,0.047038421034813,0.019304141402245,-0.014866905286908,1490025071.044171094894409,-0.005392134189606,0.032132327556610,0.000994138419628,balanced
-0.729291319847107,0.098488070070744,-0.670376837253571,0.095021769404411,0.959083020687103,0.271053761243820,-0.081789992749691,0.100338824093342,0.033652186393738,-0.009667349047959,1490025071.053997993469238,-0.005388140678406,0.032105833292007,0.000953309237957,balanced
-0.729203760623932,0.097981430590153,-0.670478165149689,0.095500849187374,0.959115803241730,0.270959317684174,-0.081717342138290,0.150242209434509,0.050637826323509,0.001431108452380,1490025071.063823938369751,-0.000617384910583,0.027142643928528,-0.005151234567165,balanced
-0.729092001914978,0.097306527197361,-0.670609831809998,0.096117958426476,0.959166705608368,0.270806103944778,-0.081627786159515,0.186933621764183,0.061409514397383,0.002760558389127,1490025071.073651075363159,-0.000668346881866,0.027295827865601,-0.005240760743618,balanced
-0.728995203971863,0.096549279987812,-0.670730173587799,0.096774682402611,0.959231078624725,0.270587325096130,-0.081598542630672,0.196499153971672,0.057690944522619,0.007580613717437,1490025071.083477020263672,0.011106014251709,0.014703333377838,-0.000664599239826,balanced
-0.728930234909058,0.095855303108692,-0.670813620090485,0.097373537719250,0.959285140037537,0.270382642745972,-0.081641696393490,0.175686135888100,0.043080843985081,0.007381143048406,1490025071.093303918838501,0.011051952838898,0.014908015727997,-0.000621445477009,balanced
-0.728875458240509,0.095290571451187,-0.670885324478149,0.097842514514923,0.959336757659912,0.270192146301269,-0.081665173172951,0.133191421627998,0.037348389625549,0.007186732254922,1490025071.103131055831909,0.008774220943451,0.001548647880554,0.008193090558052,balanced
-0.728804886341095,0.094912774860859,-0.670970797538757,0.098148703575134,0.959382474422455,0.270055621862411,-0.081579506397247,0.078680768609047,0.035428781062365,0.005767267197371,1490025071.112926959991455,0.008728563785553,0.001685172319412,0.008107438683510,balanced
-0.728711366653442,0.094724208116531,-0.671081304550171,0.098269999027252,0.959432065486908,0.269947528839111,-0.081354416906834,0.030244793742895,0.035985916852951,0.007988876663148,1490025071.122754096984863,-0.003970026969910,-0.006612062454224,0.008391104638577,balanced
-0.728604197502136,0.094649374485016,-0.671200990676880,0.098319150507450,0.959468007087708,0.269907683134079,-0.081061452627182,0.010978542268276,0.034844219684601,0.001866268925369,1490025071.132580041885376,-0.004006028175354,-0.006572216749191,0.008098088204861,balanced
-0.728507339954376,0.094588667154312,-0.671312868595123,0.098331794142723,0.959510564804077,0.269839882850647,-0.080784030258656,0.007203510962427,0.030030287802219,0.006629332434386,1490025071.142406940460205,-0.005881130695343,0.004143714904785,0.002957887947559,balanced
0.057255912572145,-0.202801391482353,-0.949747860431671,0.231453135609627,-0.014879325404763,0.462867408990860,0.886298835277557,0.156795710325241,0.167915984988213,0.189123243093491,1490025157.151539087295532,0.962118625640869,-0.162472099065781,-0.890167474746704,balanced
0.057958837598562,-0.203818142414093,-0.949340164661407,0.232056975364685,-0.015450461767614,0.464228153228760,0.885577142238617,0.151833444833755,0.161764338612557,0.187867835164070,1490025157.161365985870361,0.973762512207031,-0.155995905399323,-0.894536435604095,balanced
0.058626398444176,-0.204809054732323,-0.948946535587311,0.232626244425774,-0.015978712588549,0.465514183044434,0.884892523288727,0.142223149538040,0.155580759048462,0.181716457009315,1490025157.171191930770874,0.974290728569031,-0.157281965017319,-0.893851935863495,balanced
0.059254385530949,-0.205764919519424,-0.948570430278778,0.233156740665436,-0.016462959349155,0.466716140508652,0.884250104427338,0.132426172494888,0.146870881319046,0.173220440745354,1490025157.180989027023315,0.987354338169098,-0.148923635482788,-0.894198298454285,balanced
0.059836313128471,-0.206634148955345,-0.948225557804108,0.233641743659973,-0.016919916495681,0.467818588018417,0.883658766746521,0.121460452675819,0.133073851466179,0.156245455145836,1490025157.190814018249512,0.987811267375946,-0.150026112794876,-0.893606901168823,balanced
0.060304440557957,-0.207425490021706,-0.947914719581604,0.234081029891968,-0.017218189314008,0.468795061111450,0.883135318756104,0.106482580304146,0.108347460627556,0.147637844085693,1490025157.200642108917236,0.995422959327698,-0.148154079914093,-0.894581735134125,balanced
0.060703851282597,-0.208140030503273,-0.947654306888580,0.234397664666176,-0.017477458342910,0.469525724649429,0.882741928100586,0.072427012026310,0.097233831882477,0.129462316632271,1490025157.210469007492065,0.995682239532471,-0.148884743452072,-0.894188344478607,balanced
0.061044849455357,-0.208754941821098,-0.947459101676941,0.234551325440407,-0.017747499048710,0.469942390918732,0.882514774799347,0.037329748272896,0.088517569005489,0.106454998254776,1490025157.220293998718262,0.991101324558258,-0.154826670885086,-0.897316217422485,balanced
0.061326898634434,-0.209319844841957,-0.947316229343414,0.234551385045052,-0.017999414354563,0.470062553882599,0.882445693016052,0.002073101699352,0.081284955143929,0.096705965697765,1490025157.230122089385986,0.991353213787079,-0.154946804046631,-0.897247076034546,balanced
0.061554327607155,-0.209794655442238,-0.947228729724884,0.234420239925384,-0.018251828849316,0.469926714897156,0.882512152194977,-0.022251678630710,0.070142023265362,0.082134477794170,1490025157.239948987960815,0.985611200332642,-0.153739362955093,-0.902902960777283,balanced
0.061711039394140,-0.210225909948349,-0.947173833847046,0.234214484691620,-0.018426258116961,0.469630181789398,0.882666409015656,-0.038262460380793,0.056502111256123,0.071220576763153,1490025157.249773979187012,0.985785603523254,-0.153442859649658,-0.903057336807251,balanced
0.061802398413420,-0.210581779479980,-0.947157025337219,0.233938723802567,-0.018546685576439,0.469182342290878,0.882902204990387,-0.058982118964195,0.044084854424000,0.056655481457710,1490025157.259602069854736,0.978801608085632,-0.149653822183609,-0.905178844928741,balanced
0.061830766499043,-0.210839793086052,-0.947178959846497,0.233610391616821,-0.018620869144797,0.468614459037781,0.883202791213989,-0.067621558904648,0.025295455008745,0.038459435105324,1490025157.269428014755249,0.978875756263733,-0.149085938930512,-0.905479490756989,balanced
0.061805181205273,-0.211041256785393,-0.947225391864777,0.233246788382530,-0.018637483939528,0.467961460351944,0.883548736572266,-0.076211579144001,0.017877485603094,0.033579193055630,1490025157.279225111007690,0.970338046550751,-0.153935015201569,-0.913301944732666,balanced
0.061723988503218,-0.211228877305984,-0.947281002998352,0.232872337102890,-0.018561199307442,0.467266857624054,0.883917868137360,-0.082591839134693,0.005554506555200,0.032319515943527,1490025157.289052009582520,0.970261752605438,-0.153240412473679,-0.913671135902405,balanced
0.061591278761625,-0.211401388049126,-0.947348654270172,0.232475608587265,-0.018405497074127,0.466511875391007,0.884320020675659,-0.088862523436546,-0.004246458876878,0.033440705388784,1490025157.298877000808716,0.969434022903442,-0.148669451475143,-0.922476232051849,balanced
0.061409197747707,-0.211584150791168,-0.947412312030792,0.232098087668419,-0.018143106251955,0.465771585702896,0.884715855121613,-0.082878418266773,-0.012862050905824,0.038145978003740,1490025157.308705091476440,0.969171643257141,-0.147929191589355,-0.922872126102448,balanced
0.061179604381323,-0.211787551641464,-0.947452247142792,0.231810197234154,-0.017740478739142,0.465172350406647,0.885039448738098,-0.063858121633530,-0.026524867862463,0.045347433537245,1490025157.318531990051270,0.966962337493896,-0.149473816156387,-0.929308176040649,balanced
0.060953680425882,-0.211961075663567,-0.947482824325562,0.231585815548897,-0.017330773174763,0.464686781167984,0.885302424430847,-0.055418275296688,-0.024311246350408,0.037056479603052,1490025157.328356981277466,0.966552615165710,-0.148988246917725,-0.929571032524109,balanced
0.060693219304085,-0.212143391370773,-0.947510480880737,0.231373965740204,-0.016846006736159,0.464209854602814,0.885561883449554,-0.053265377879143,-0.034087181091309,0.044216122478247,1490025157.338185071945190,0.964403390884399,-0.147511541843414,-0.925714910030365,balanced
0.060385815799236,-0.212324962019920,-0.947536766529083,0.231180444359779,-0.016264803707600,0.463746786117554,0.885815620422363,-0.053474172949791,-0.043974965810776,0.044158596545458,1490025157.348011016845703,0.963822185993195,-0.147048503160477,-0.925968587398529,balanced
0.060032777488232,-0.212461844086647,-0.947578608989716,0.230975329875946,-0.015624662861228,0.463243901729584,0.886090517044067,-0.058471858501434,-0.055230811238289,0.034464959055185,1490025157.357836961746216,0.966291129589081,-0.145034968852997,-0.918042659759521,balanced
0.059649519622326,-0.212535813450813,-0.947637021541595,0.230767130851746,-0.014959626831114,0.462722271680832,0.886374771595001,-0.061012782156467,-0.065299160778522,0.023586209863424,1490025157.367665052413940,0.965626120567322,-0.144513309001923,-0.918326973915100,balanced
0.059239666908979,-0.212545111775398,-0.947713494300842,0.230550244450569,-0.014279808849096,0.462173372507095,0.886672556400299,-0.065860264003277,-0.070420950651169,0.011525820940733,1490025157.377460002899170,0.967979669570923,-0.150504916906357,-0.908957123756409,balanced
0.058801695704460,-0.212510243058205,-0.947815954685211,0.230272963643074,-0.013595643453300,0.461504697799683,0.887031376361847,-0.080486081540585,-0.076516129076481,0.007831484079361,1490025157.387288093566895,0.967295527458191,-0.149836272001267,-0.909315824508667,balanced
0.058315049856901,-0.212431520223618,-0.947937130928040,0.229969993233681,-0.012852251529694,0.460770100355148,0.887423932552338,-0.086720272898674,-0.088995166122913,-0.001873874338344,1490025157.397114038467407,0.969529211521149,-0.150362432003021,-0.899328827857971,balanced
0.057803627103567,-0.212308570742607,-0.948069691658020,0.229666069149971,-0.012083584442735,0.460023283958435,0.887822151184082,-0.084202133119106,-0.092953421175480,-0.013936130329967,1490025157.406939983367920,0.968760550022125,-0.149615615606308,-0.899727106094360,balanced
0.057277217507362,-0.212166666984558,-0.948219120502472,0.229312121868133,-0.011317928321660,0.459180921316147,0.888268411159515,-0.098785601556301,-0.096553750336170,-0.016414733603597,1490025157.416768074035645,0.965468704700470,-0.152265310287476,-0.890843331813812,balanced
0.056734960526228,-0.211989879608154,-0.948386728763580,0.228917002677918,-0.010557191446424,0.458258181810379,0.888754189014435,-0.107281088829040,-0.099004924297333,-0.020064862444997,1490025157.426594018936157,0.964707970619202,-0.151342570781708,-0.891329109668732,balanced
0.056186459958553,-0.211830511689186,-0.948552787303925,0.228511229157448,-0.009780345484614,0.457313925027847,0.889249086380005,-0.106064289808273,-0.097735926508904,-0.017650440335274,1490025157.436419963836670,0.960896074771881,-0.155915290117264,-0.887252032756805,balanced
0.055662259459496,-0.211681589484215,-0.948713004589081,0.228112429380417,-0.009040615521371,0.456391811370850,0.889730930328369,-0.109497785568237,-0.091490544378757,-0.016462936997414,1490025157.446248054504395,0.960156321525574,-0.154993176460266,-0.887733876705170,balanced
0.055152181535959,-0.211553812026978,-0.948874771595001,0.227681457996368,-0.008331266231835,0.455417692661285,0.890236675739288,-0.108284443616867,-0.088916867971420,-0.010437268763781,1490025157.456073999404907,0.960323333740234,-0.152722299098969,-0.885336279869080,balanced
0.054639622569084,-0.211443379521370,-0.949018895626068,0.227306678891182,-0.007583083584905,0.454543054103851,0.890690326690674,-0.096231363713741,-0.087812989950180,-0.010348585434258,1490025157.465899944305420,0.959575176239014,-0.151847630739212,-0.885789871215820,balanced
0.054181829094887,-0.211349025368690,-0.949144065380096,0.226980894804001,-0.006908341310918,0.453777700662613,0.891085743904114,-0.085194423794746,-0.079184614121914,-0.005452097859234,1490025157.475697040557861,0.954255044460297,-0.152244299650192,-0.883407711982727,balanced
0.053776562213898,-0.211262255907059,-0.949254512786865,0.226695939898491,-0.006310697179288,0.453106194734573,0.891431748867035,-0.074229910969734,-0.068161524832249,-0.004072846844792,1490025157.485522985458374,0.953657388687134,-0.151572793722153,-0.883753657341003,balanced
0.053415443748236,-0.211178883910179,-0.949353218078613,0.226445987820625,-0.005779024679214,0.452514886856079,0.891736090183258,-0.065606862306595,-0.062116950750351,-0.006407906301320,1490025157.495348930358887,0.950214087963104,-0.146257221698761,-0.881825089454651,balanced
0.053114753216505,-0.211086571216583,-0.949433267116547,0.226266995072365,-0.005333979148418,0.452074438333511,0.891962110996246,-0.047003775835037,-0.055017493665218,-0.013613621704280,1490025157.505177021026611,0.949769020080566,-0.145816773176193,-0.882051110267639,balanced
0.052860870957375,-0.210951223969460,-0.949513792991638,0.226114615797996,-0.004985942039639,0.451700031757355,0.892153739929199,-0.041936576366425,-0.047813110053539,-0.021961830556393,1490025157.515002965927124,0.948808431625366,-0.148488581180573,-0.880631566047668,balanced
0.052664291113615,-0.210811555385590,-0.949600458145142,0.225926816463470,-0.004764102865010,0.451284885406494,0.892365097999573,-0.050273053348064,-0.035441130399704,-0.025453235954046,1490025157.524830102920532,0.948586583137512,-0.148073494434357,-0.880842924118042,balanced
0.052500970661640,-0.210640668869019,-0.949698746204376,0.225711330771446,-0.004632240626961,0.450833201408386,0.892594397068024,-0.052523955702782,-0.029327312484384,-0.030231747776270,1490025157.534657001495361,0.951695084571838,-0.152172774076462,-0.879699110984802,balanced
0.052358955144882,-0.210498318076134,-0.949790358543396,0.225492104887962,-0.004528644029051,0.450383394956589,0.892822563648224,-0.048560541123152,-0.023104302585125,-0.026686811819673,1490025157.544483900070190,0.951591491699219,-0.151722967624664,-0.879927158355713,balanced
-0.435223847627640,-0.294631272554398,-0.780096232891083,0.339443534612656,0.879054307937622,0.273136138916016,0.390715450048447,-0.046142656356096,-0.025716330856085,-0.032698899507523,1490025157.554310083389282,0.073759078979492,0.024960845708847,-0.376770973205566,balanced
-0.435314059257507,-0.294389098882675,-0.780155420303345,0.339401960372925,0.879057705402374,0.273269116878510,0.390614837408066,-0.033806119114161,-0.022127721458673,-0.032704491168261,1490025157.564136981964111,0.073755621910095,0.024827837944031,-0.376670241355896,balanced
-0.428943186998367,-0.091048941016197,-0.655950188636780,0.614366888999939,0.674605667591095,0.727878510951996,-0.122878879308701,-0.032582931220531,-0.019576946273446,-0.027880175039172,1490025157.573964118957520,0.277052521705627,-0.432456761598587,0.135965511202812,balanced
-0.428905963897705,-0.090845502912998,-0.656031429767609,0.614336252212524,0.674370944499969,0.728119432926178,-0.122739717364311,-0.032765962183475,-0.010992245748639,-0.030051451176405,1490025157.583760023117065,0.277287185192108,-0.432697683572769,0.135826274752617,balanced
-0.502059459686279,-0.209586381912231,-0.646263182163239,0.535119771957397,0.873232722282410,0.481206774711609,-0.076834894716740,-0.030247144401073,-0.007355699315667,-0.032423529773951,1490025157.593585014343262,0.075559198856354,-0.191179007291794,0.088263347744942,balanced
-0.502008199691772,-0.209398612380028,-0.646382629871368,0.535097002983093,0.873075902462006,0.481515169143677,-0.076683431863785,-0.037075921893120,0.001339787500910,-0.034911718219519,1490025157.603413105010986,0.075716018676758,-0.191487401723862,0.088111892342567,balanced
-0.513232350349426,-0.239879131317139,-0.648518443107605,0.508403122425079,0.909591913223267,0.413190156221390,-0.043763663619757,-0.042932476848364,0.012619074434042,-0.030064232647419,1490025157.613240003585815,0.038351058959961,-0.127426236867905,0.053478185087442,balanced
-0.513163864612579,-0.239742547273636,-0.648690104484558,0.508317649364471,0.909499406814575,0.413426846265793,-0.043449319899082,-0.038276840001345,0.017636470496655,-0.022700592875481,1490025157.623065948486328,0.038443624973297,-0.127662926912308,0.053163889795542,balanced
-0.517574369907379,-0.253160685300827,-0.649646520614624,0.495968848466873,0.923600375652313,0.382349908351898,-0.027738131582737,-0.026244681328535,0.015082498081028,-0.020266994833946,1490025157.632893085479736,0.028188884258270,-0.094546228647232,0.033148530870676,balanced
-0.517512738704681,-0.253110677003860,-0.649753749370575,0.495918214321136,0.923556089401245,0.382473438978195,-0.027510100975633,-0.017772365361452,0.018884159624577,-0.010602917522192,1490025157.642719984054565,0.028233170509338,-0.094669729471207,0.032920543104410,balanced
-0.520062029361725,-0.260854393243790,-0.650064945220947,0.488779246807098,0.931148588657379,0.364155590534210,-0.018741104751825,-0.004487453028560,0.018812254071236,-0.006949060596526,1490025157.652545928955078,0.022727668285370,-0.073124498128891,0.020306924358010,balanced
-0.520001530647278,-0.260902583599091,-0.650103926658630,0.488766074180603,0.931150734424591,0.364158004522324,-0.018589451909065,0.005100725218654,0.017634339630604,0.001489431713708,1490025157.662373065948486,0.022725522518158,-0.073126941919327,0.020155349746346,balanced
-0.521774530410767,-0.266006112098694,-0.650068342685699,0.484151214361191,0.935952544212341,0.351872324943542,-0.013303796760738,0.009909861721098,0.015065453946590,-0.000909543829039,1490025157.672199010848999,0.020294249057770,-0.060967028141022,0.011677480302751,balanced
-0.521715164184570,-0.266054689884186,-0.650089502334595,0.484160095453262,0.935949206352234,0.351885259151459,-0.013197082094848,0.007462949492037,0.013855046592653,-0.000925789121538,1490025157.681996107101440,0.020297586917877,-0.060979932546616,0.011570787988603,balanced
-0.523087263107300,-0.269657373428345,-0.649902820587158,0.480926305055618,0.939282417297363,0.343002051115036,-0.009822449646890,0.001391207799315,0.013964769430459,0.001454278011806,1490025157.691823005676270,0.017098367214203,-0.055990248918533,0.007179812528193,balanced
-0.523038148880005,-0.269679605960846,-0.649954855442047,0.480896919965744,0.939278542995453,0.343017131090164,-0.009663191623986,-0.008030012249947,0.017714766785502,-0.002236863365397,1490025157.701648950576782,0.017102181911469,-0.056005269289017,0.007020608521998,balanced
-0.524180293083191,-0.272339195013046,-0.649728000164032,0.478454887866974,0.941753268241882,0.336221396923065,-0.007369777187705,-0.017703942954540,0.021685272455215,0.006157953292131,1490025157.711476087570190,0.013840258121490,-0.049669206142426,0.003933755680919,balanced
-0.524171590805054,-0.272372007369995,-0.649793684482574,0.478356510400772,0.941788613796234,0.336126744747162,-0.007163314614445,-0.013035688549280,0.016850570216775,0.014556763693690,1490025157.721302986145020,0.013804912567139,-0.049574524164200,0.003727345028892,balanced
-0.525163710117340,-0.274467915296555,-0.649459183216095,0.476521134376526,0.943724334239960,0.330680876970291,-0.005740265827626,0.001541389152408,0.019169118255377,0.014625472947955,1490025157.731128931045532,0.015590190887451,-0.039898306131363,0.001057193148881,balanced
-0.525131285190582,-0.274605154991150,-0.649457931518555,0.476479619741440,0.943788886070251,0.330499410629273,-0.005592808127403,0.014688371680677,0.020347567275167,0.019560310989618,1490025157.740956068038940,0.015525579452515,-0.039716839790344,0.000909731257707,balanced
-0.525966584682465,-0.276311993598938,-0.649043262004852,0.475134670734406,0.945320963859558,0.326104164123535,-0.004789052531123,0.020645329728723,0.019208000972867,0.027985222637653,1490025157.750782012939453,0.017270684242249,-0.027383297681808,-0.004010757431388,balanced
-0.525934875011444,-0.276514589786529,-0.648979008197784,0.475139766931534,0.945407569408417,0.325854122638702,-0.004731857217848,0.034065242856741,0.015299279242754,0.024336958304048,1490025157.760608911514282,0.017184138298035,-0.027133285999298,-0.004067858681083,balanced
-0.526624798774719,-0.277887195348740,-0.648499488830566,0.474228560924530,0.946595907211304,0.322389394044876,-0.004454239271581,0.040228597819805,0.017569890245795,0.017165863886476,1490025157.770436048507690,0.012614250183105,-0.027490556240082,-0.007574468851089,balanced
-0.526552736759186,-0.278068125247955,-0.648457229137421,0.474260330200195,0.946647226810455,0.322240024805069,-0.004362679552287,0.028222534805536,0.021359834820032,0.014739456586540,1490025157.780231952667236,0.012562930583954,-0.027341157197952,-0.007666021585464,balanced
-0.527163684368134,-0.279126316308975,-0.648037552833557,0.473533004522324,0.947594761848450,0.319443821907044,-0.004271659534425,0.022023759782314,0.013985009863973,0.013472324237227,1490025157.790059089660645,0.012891769409180,-0.024279892444611,-0.005006128922105,balanced
-0.527111589908600,-0.279235005378723,-0.648017048835754,0.473554968833923,0.947620868682861,0.319367378950119,-0.004203432239592,0.018127068877220,0.012610018253326,0.005186964292079,1490025157.799885034561157,0.012865662574768,-0.024203389883041,-0.005074376240373,balanced
-0.527657866477966,-0.280059635639191,-0.647624790668488,0.472995847463608,0.948382735252380,0.317096322774887,-0.004297461826354,0.016831973567605,0.007633103989065,0.002750970888883,1490025157.809711933135986,0.012606620788574,-0.022087454795837,-0.006141236983240,balanced
-0.527637660503387,-0.280123770236969,-0.647576928138733,0.473045974969864,0.948394775390625,0.317059606313705,-0.004349591210485,0.019378442317247,-0.001027229707688,0.002564816037193,1490025157.819539070129395,0.012594580650330,-0.022050738334656,-0.006089142523706,balanced
-0.528131365776062,-0.280777812004089,-0.647183954715729,0.472645014524460,0.949012756347656,0.315201401710510,-0.004633497912437,0.019355805590749,-0.003567885607481,-0.001053620828316,1490025157.829365015029907,0.007857501506805,-0.019000381231308,-0.005239458754659,balanced
-0.528124749660492,-0.280824780464172,-0.647126495838165,0.472703248262405,0.949020624160767,0.315176546573639,-0.004729482345283,0.019129725173116,-0.006002547219396,0.001407140051015,1490025157.839191913604736,0.007849633693695,-0.018975526094437,-0.005143435671926,balanced
-0.528588652610779,-0.281356215476990,-0.646761536598206,0.472368001937866,0.949548959732056,0.313575506210327,-0.005076389759779,0.014121651649475,-0.013344349339604,0.002547239419073,1490025157.849019050598145,0.008589684963226,-0.020852237939835,-0.000649476423860,balanced
-0.528648972511292,-0.281336843967438,-0.646692574024200,0.472406476736069,0.949557423591614,0.313546657562256,-0.005276589654386,0.004296841099858,-0.023102704435587,0.003618628717959,1490025157.858844995498657,0.008581221103668,-0.020823419094086,-0.000449324026704,balanced
-0.529123783111572,-0.281728982925415,-0.646390616893768,0.472054362297058,0.950024068355560,0.312124013900757,-0.005615901201963,-0.013914918527007,-0.024078220129013,0.007147583644837,1490025157.868671894073486,0.009153366088867,-0.023724466562271,0.001555236987770,balanced
-0.529256463050842,-0.281632035970688,-0.646367728710175,0.471994817256927,0.950046300888062,0.312053292989731,-0.005784311331809,-0.027378387749195,-0.026368007063866,0.009522324427962,1490025157.878499031066895,0.009131193161011,-0.023653745651245,0.001723620109260,balanced
-0.529715836048126,-0.281925708055496,-0.646135032176971,0.471622616052628,0.950460970401764,0.310782760381699,-0.006054830737412,-0.023691508919001,-0.025239093229175,0.005939041264355,1490025157.888294935226440,0.006617307662964,-0.019413232803345,0.002164382254705,balanced
-0.529829859733582,-0.281846493482590,-0.646105706691742,0.471582084894180,0.950479686260223,0.310722380876541,-0.006219939794391,-0.016376867890358,-0.022843845188618,0.005980586633086,1490025157.898121118545532,0.006598591804504,-0.019352823495865,0.002329546725377,balanced
-0.530186176300049,-0.282133340835571,-0.645897984504700,0.471294492483139,0.950828135013580,0.309649944305420,-0.006433143280447,-0.001818966120481,-0.024370634928346,-0.001180387334898,1490025157.907948017120361,0.000573635101318,-0.014318376779556,0.004243317060173,balanced
-0.530237436294556,-0.282079637050629,-0.645825445652008,0.471368312835693,0.950808465480804,0.309704929590225,-0.006681144237518,0.010386567562819,-0.022141037508845,-0.007127492688596,1490025157.917774915695190,0.000593364238739,-0.014373391866684,0.004491331987083,balanced
-0.530450642108917,-0.282370358705521,-0.645681917667389,0.471150904893875,0.951082885265350,0.308860152959824,-0.006723683327436,0.004579279571772,-0.010976267047226,-0.008286766707897,1490025157.927601099014282,-0.002123832702637,-0.013981848955154,0.007766627706587,balanced
-0.530471742153168,-0.282346278429031,-0.645651519298553,0.471183389425278,0.951073527336121,0.308887094259262,-0.006829389370978,0.006991960108280,-0.012096126563847,-0.001113009289838,1490025157.937427997589111,-0.002114474773407,-0.014008760452271,0.007872306741774,balanced
-0.530651450157166,-0.282680004835129,-0.645500600337982,0.470987707376480,0.951349258422852,0.308036595582962,-0.006841979455203,0.022642025724053,-0.013360860757530,0.006146767642349,1490025157.947254896163940,0.001387417316437,-0.012915253639221,0.008908145129681,balanced
-0.530660033226013,-0.282732129096985,-0.645408630371094,0.471072793006897,0.951359987258911,0.307999610900879,-0.007020486053079,0.025150990113616,-0.009701412171125,0.004976042080671,1490025157.957081079483032,0.001376748085022,-0.012878268957138,0.009086661040783,balanced
-0.530773341655731,-0.283084839582443,-0.645300865173340,0.470880836248398,0.951615452766418,0.307211846113205,-0.006899533793330,0.023982927203178,-0.007193779572845,0.006187247578055,1490025157.966907978057861,0.002291798591614,-0.011716485023499,0.012462149374187,balanced
-0.530798673629761,-0.283150106668472,-0.645219981670380,0.470923900604248,0.951648116111755,0.307107627391815,-0.007034384645522,0.017694957554340,-0.009541621431708,0.009826723486185,1490025157.976735115051270,0.002259135246277,-0.011612296104431,0.012597094289958,balanced
-0.530894279479980,-0.283479005098343,-0.645161271095276,0.470698505640030,0.951891124248505,0.306358128786087,-0.006813175976276,0.016533819958568,-0.009643355384469,0.003815436502919,1490025157.986531019210815,0.004019796848297,-0.014648646116257,0.014782707206905,balanced
-0.530933558940887,-0.283503890037537,-0.645114004611969,0.470703959465027,0.951918184757233,0.306271970272064,-0.006906930822879,0.000878550112247,-0.006886450573802,0.009741502813995,1490025157.996356010437012,0.003992855548859,-0.014562457799912,0.014876465313137,balanced
-0.531003892421722,-0.283818423748016,-0.645157814025879,0.470374912023544,0.952164769172668,0.305514723062515,-0.006436994764954,-0.007362868636847,0.005631471984088,0.013385771773756,1490025158.006184101104736,0.004788160324097,-0.013497918844223,0.015780696645379,balanced
-0.531045377254486,-0.283881008625031,-0.645142734050751,0.470310926437378,0.952224791049957,0.305327951908112,-0.006404851097614,0.001049648970366,0.001975750317797,0.020567785948515,1490025158.016010999679565,0.004728078842163,-0.013311177492142,0.015748510137200,balanced
-0.531034886837006,-0.284223765134811,-0.645158469676971,0.470094025135040,0.952427089214325,0.304704815149307,-0.005974800791591,0.026638099923730,0.007795556448400,0.015893405303359,1490025158.025836944580078,0.003154039382935,0.000271856784821,0.010660749860108,balanced
-0.530968844890594,-0.284394621849060,-0.645069420337677,0.470187425613403,0.952461063861847,0.304597705602646,-0.006010284181684,0.049792952835560,0.011077369563282,0.006390180438757,1490025158.035664081573486,0.003120005130768,0.000378996133804,0.010696274228394,balanced
-0.530812919139862,-0.284746170043945,-0.645067274570465,0.470153480768204,0.952568888664246,0.304267346858978,-0.005615659989417,0.059587530791759,0.013309631496668,-0.000767330988310,1490025158.045490980148315,0.000883817672729,0.004501193761826,0.009149062447250,balanced
-0.530665218830109,-0.284901052713394,-0.644970774650574,0.470358878374100,0.952538609504700,0.304361313581467,-0.005688180215657,0.058516789227724,0.011884573847055,-0.011627435684204,1490025158.055316925048828,0.000914096832275,0.004407227039337,0.009221601299942,balanced
-0.530464351177216,-0.285147011280060,-0.645034790039062,0.470348387956619,0.952572822570801,0.304261505603790,-0.005242603365332,0.039255209267139,0.013141851872206,-0.021303497254848,1490025158.065144062042236,-0.000053107738495,-0.003021150827408,0.009735740721226,balanced
-0.530312478542328,-0.285160481929779,-0.645055294036865,0.470483303070068,0.952488243579865,0.304527163505554,-0.005174334160984,0.019958890974522,0.016889717429876,-0.029727609828115,1490025158.074970006942749,0.000031530857086,-0.003286838531494,0.009667493402958,balanced
-0.530123591423035,-0.285259217023849,-0.645236909389496,0.470387339591980,0.952475249767303,0.304577261209488,-0.004593019839376,0.000641653314233,0.016979733482003,-0.035806804895401,1490025158.084767103195190,0.000275969505310,-0.008750915527344,0.008442739024758,balanced
-0.529998958110809,-0.285178005695343,-0.645323991775513,0.470457583665848,0.952370405197144,0.304907053709030,-0.004460901487619,-0.000683004036546,0.012071527540684,-0.034638743847609,1490025158.094594001770020,0.000380873680115,-0.009080737829208,0.008310655131936,balanced
-0.529864192008972,-0.285235643386841,-0.645493388175964,0.470342099666596,0.952364325523376,0.304933130741119,-0.003957827109843,-0.005638880655169,0.007201671134681,-0.033484265208244,1490025158.104419946670532,0.003807127475739,-0.009080499410629,0.004885571077466,balanced
-0.529790520668030,-0.285157173871994,-0.645524263381958,0.470430225133896,0.952278375625610,0.305201113224029,-0.003967623226345,0.008557242341340,-0.001447476446629,-0.025034587830305,1490025158.114247083663940,0.003893077373505,-0.009348481893539,0.004895286634564,balanced
-0.529709100723267,-0.285269945859909,-0.645591735839844,0.470361083745956,0.952311396598816,0.305102288722992,-0.003664737101644,0.009708526544273,-0.001322840806097,-0.017821948975325,1490025158.124073982238770,0.005523860454559,-0.007932126522064,0.004303114023060,balanced
-0.529652595520020,-0.285239934921265,-0.645588874816895,0.470446825027466,0.952256083488464,0.305274337530136,-0.003706368384883,0.009805323556066,-0.001364386174828,-0.020260870456696,1490025158.133899927139282,0.005579173564911,-0.008104145526886,0.004344718065113,balanced
-0.529610633850098,-0.285326927900314,-0.645635247230530,0.470377653837204,0.952293395996094,0.305160433053970,-0.003487343434244,0.003707483410835,-0.002490636892617,-0.017887994647026,1490025158.143727064132690,0.004728019237518,-0.011635422706604,0.002956786891446,balanced
-0.529563486576080,-0.285261005163193,-0.645661175251007,0.470435172319412,0.952230811119080,0.305355817079544,-0.003495611483231,-0.001129472628236,-0.000040528597310,-0.021459560841322,1490025158.153553009033203,0.004790604114532,-0.011830776929855,0.002965071937069,balanced
-0.529525518417358,-0.285303413867950,-0.645745456218719,0.470336496829987,0.952254593372345,0.305284440517425,-0.003229535650462,-0.005892803892493,0.003718523308635,-0.021456096321344,1490025158.163379907608032,0.001155018806458,-0.011889785528183,0.003345356555656,balanced
-0.529475212097168,-0.285254776477814,-0.645788550376892,0.470363587141037,0.952205002307892,0.305440157651901,-0.003173721488565,-0.003485305234790,0.005020543001592,-0.016634445637465,1490025158.173207044601440,0.001204729080200,-0.012045562267303,0.003289507003501,balanced
-0.529433131217957,-0.285333663225174,-0.645863413810730,0.470260441303253,0.952245235443115,0.305317848920822,-0.002890302566811,-0.004575071856380,0.011236093938351,-0.015401667915285,1490025158.183002948760986,-0.000881552696228,-0.010031789541245,0.002219493966550,balanced
-0.529351949691772,-0.285318493843079,-0.645908117294312,0.470299720764160,0.952195882797241,0.305472999811172,-0.002792122075334,0.007606085389853,0.011112523265183,-0.015392613597214,1490025158.192830085754395,-0.000832200050354,-0.010186910629272,0.002121325116605,balanced
-0.529309868812561,-0.285468339920044,-0.645926296710968,0.470231264829636,0.952262580394745,0.305267065763474,-0.002574092242867,0.012535862624645,0.014746407046914,-0.016554282978177,1490025158.202656030654907,0.002395033836365,-0.012119144201279,0.001256785122678,balanced
-0.529234468936920,-0.285498291254044,-0.645938396453857,0.470281392335892,0.952234804630280,0.305354535579681,-0.002508627250791,0.013659836724401,0.009931411594152,-0.009406626224518,1490025158.212482929229736,0.002422869205475,-0.012206614017487,0.001191339222714,balanced
-0.529233515262604,-0.285699874162674,-0.645902097225189,0.470209985971451,0.952343940734863,0.305015325546265,-0.002372125396505,0.020830664783716,0.007474379148334,-0.004588434472680,1490025158.222310066223145,0.005338728427887,-0.014434993267059,0.003618467599154,balanced
-0.529166579246521,-0.285740941762924,-0.645896196365356,0.470268458127976,0.952323257923126,0.305080115795135,-0.002340435516089,0.013459855690598,0.008732723072171,-0.006938674487174,1490025158.232136011123657,0.005359411239624,-0.014499753713608,0.003586757928133,balanced
-0.529182016849518,-0.285933315753937,-0.645867228507996,0.470173984766007,0.952439486980438,0.304718405008316,-0.002195324050263,0.012301647104323,0.011217452585697,-0.006928820163012,1490025158.241962909698486,0.005373299121857,-0.017074704170227,0.004037310834974,balanced
-0.529116988182068,-0.285975217819214,-0.645881831645966,0.470201641321182,0.952426135540009,0.304760694503784,-0.002109668683261,0.009974167682230,0.012506155297160,-0.005765551701188,1490025158.251790046691895,0.005386590957642,-0.017117023468018,0.003951599355787,balanced
-0.529131531715393,-0.286170542240143,-0.645880937576294,0.470067709684372,0.952551007270813,0.304371833801269,-0.001888470491394,0.004016676917672,0.017536867409945,-0.004558074753731,1490025158.261615991592407,0.006811201572418,-0.016261041164398,0.004029105883092,balanced
-0.529072582721710,-0.286234557628632,-0.645912826061249,0.470051199197769,0.952559351921082,0.304346472024918,-0.001732798293233,0.006184776313603,0.017731809988618,0.007536937482655,1490025158.271442890167236,0.006802856922150,-0.016235738992691,0.003873418550938,balanced
-0.529122173786163,-0.286480456590653,-0.645882010459900,0.469888061285019,0.952728450298309,0.303818166255951,-0.001530753099360,0.008517439477146,0.014021227136254,0.008725772611797,1490025158.281270027160645,0.011218547821045,-0.013137578964233,0.003382614580914,balanced
-0.529073476791382,-0.286579072475433,-0.645866632461548,0.469903886318207,0.952751040458679,0.303747713565826,-0.001457456615753,0.018364723771811,0.013904581777751,0.007488201837987,1490025158.291065931320190,0.011196017265320,-0.013067096471787,0.003309300867841,balanced
-0.529115498065948,-0.286825567483902,-0.645828366279602,0.469758927822113,0.952913343906403,0.303239583969116,-0.001273630303331,0.007507015950978,0.015232699923217,0.006253294181079,1490025158.300892114639282,0.008223474025726,-0.016076326370239,0.004411531612277,balanced
-0.529090583324432,-0.286901503801346,-0.645851850509644,0.469708353281021,0.952948331832886,0.303130239248276,-0.001125828595832,-0.002399390563369,0.015486765652895,0.014698976650834,1490025158.310719013214111,0.008188545703888,-0.015967011451721,0.004263771697879,balanced
-0.529169321060181,-0.287150055170059,-0.645845651626587,0.469476193189621,0.953143656253815,0.302516311407089,-0.000856480153743,-0.005962166935205,0.019255936145782,0.015908317640424,1490025158.320545911788940,0.007203817367554,-0.015689820051193,0.004000630229712,balanced
-0.529146015644073,-0.287225127220154,-0.645893871784210,0.469390064477920,0.953185558319092,0.302384257316589,-0.000645665393677,-0.005823029205203,0.021709240972996,0.014685128815472,1490025158.330372095108032,0.007161915302277,-0.015557765960693,0.003789808368310,balanced
-0.529214084148407,-0.287505656480789,-0.645865797996521,0.469180166721344,0.953386485576630,0.301750749349594,-0.000395736948121,0.007406224496663,0.020470073446631,0.021935850381851,1490025158.340198993682861,0.005389809608459,-0.012873172760010,-0.000299606472254,balanced
-0.529161393642426,-0.287675708532333,-0.645870149135590,0.469129353761673,0.953453361988068,0.301539540290833,-0.000188874357264,0.016293026506901,0.029045185074210,0.021909220144153,1490025158.350025892257690,0.005322992801666,-0.012661933898926,-0.000506494194269,balanced
-0.529176056385040,-0.288059234619141,-0.645799100399017,0.468975305557251,0.953668177127838,0.300859570503235,0.000069201450970,0.030863180756569,0.033973097801209,0.029200421646237,1490025158.359852075576782,0.003438830375671,-0.008999288082123,-0.006263236980885,balanced
-0.529102861881256,-0.288332521915436,-0.645767271518707,0.468933880329132,0.953772425651550,0.300529181957245,0.000302024331177,0.031793057918549,0.034062050282955,0.035320363938808,1490025158.369678020477295,0.003334522247314,-0.008668869733810,-0.006496171932667,balanced
-0.529139518737793,-0.288739830255508,-0.645637392997742,0.468820899724960,0.953999042510986,0.299809306859970,0.000436665635789,0.041257664561272,0.024094901978970,0.036500412970781,1490025158.379506111145020,0.007386803627014,-0.006382614374161,-0.005918644368649,balanced
-0.529082477092743,-0.289002627134323,-0.645548045635223,0.468846410512924,0.954092025756836,0.299513310194016,0.000509595440235,0.041258197277784,0.020203756168485,0.026868026703596,1490025158.389302015304565,0.007293879985809,-0.006086647510529,-0.005991600453854,balanced
-0.529128134250641,-0.289303272962570,-0.645451128482819,0.468742966651917,0.954270422458649,0.298944354057312,0.000607085996307,0.019500438123941,0.020365145057440,0.023182477802038,1490025158.399127960205078,0.007183253765106,-0.010947406291962,-0.003184106666595,balanced
-0.529119372367859,-0.289402186870575,-0.645471334457397,0.468663811683655,0.954327464103699,0.298761516809464,0.000773738720454,-0.008428787812591,0.018091337755322,0.018294775858521,1490025158.408955097198486,0.007126271724701,-0.010764598846436,-0.003350761253387,balanced
-0.529211103916168,-0.289531856775284,-0.645469427108765,0.468482911586761,0.954460620880127,0.298335850238800,0.000918954843655,-0.018065702170134,0.015492623671889,0.006230656988919,1490025158.418781995773315,0.009493231773376,-0.011011958122253,-0.004435335285962,balanced
-0.529214084148407,-0.289497524499893,-0.645553410053253,0.468385100364685,0.954464554786682,0.298322856426239,0.001096043852158,-0.025332279503345,0.009279203601182,0.000124561600387,1490025158.428607940673828,0.009489297866821,-0.010998934507370,-0.004612361080945,balanced
-0.529357850551605,-0.289551615715027,-0.645553648471832,0.468188703060150,0.954587399959564,0.297929018735886,0.001159302424639,-0.031515341252089,0.007054398767650,0.009698359295726,1490025158.438435077667236,0.012103199958801,-0.010148823261261,-0.007943468168378,balanced
-0.529411315917969,-0.289538174867630,-0.645608961582184,0.468060225248337,0.954627990722656,0.297798186540604,0.001286571961828,-0.026729375123978,0.005836002528667,0.013313334435225,1490025158.448261022567749,0.012062549591064,-0.010017931461334,-0.008070664480329,balanced
-0.529594480991364,-0.289627045392990,-0.645552217960358,0.467876255512237,0.954780995845795,0.297307342290878,0.001242983038537,-0.022044874727726,0.002260176232085,0.022920686751604,1490025158.458087921142578,0.013564646244049,-0.007885545492172,-0.010491227731109,balanced
-0.529682517051697,-0.289671152830124,-0.645550668239594,0.467751443386078,0.954861998558044,0.297047019004822,0.001290084095672,-0.016130261123180,-0.001374239567667,0.030129864811897,1490025158.467915058135986,0.013483643531799,-0.007625222206116,-0.010538315400481,balanced
-0.529908657073975,-0.289802879095078,-0.645405292510986,0.467614382505417,0.955043673515320,0.296463489532471,0.001067400677130,-0.006580963730812,-0.006351687945426,0.033741377294064,1490025158.477741956710815,0.011794090270996,-0.008375883102417,-0.011202258057892,balanced
-0.530020296573639,-0.289881855249405,-0.645341753959656,0.467526555061340,0.955143392086029,0.296142280101776,0.000994938774966,-0.004119014367461,-0.007586062885821,0.034908376634121,1490025158.487538099288940,0.011694371700287,-0.008054733276367,-0.011129778809845,balanced
-0.530241668224335,-0.290013372898102,-0.645208954811096,0.467377096414566,0.955324590206146,0.295557439327240,0.000804703682661,-0.014872325584292,-0.001314052380621,0.033702228218317,1490025158.497364997863770,0.008011043071747,-0.011227697134018,-0.007736853323877,balanced
-0.530372381210327,-0.290063768625259,-0.645195782184601,0.467215627431870,0.955432713031769,0.295207470655441,0.000829174416140,-0.021051926538348,-0.004843540024012,0.039664782583714,1490025158.507190942764282,0.007902979850769,-0.010877728462219,-0.007761410437524,balanced
-0.530630648136139,-0.290181577205658,-0.645049810409546,0.467050790786743,0.955625474452972,0.294583559036255,0.000589211296756,-0.012693328782916,-0.009854011237621,0.040869060903788,1490025158.517018079757690,0.006390571594238,-0.006979078054428,-0.008968112990260,balanced
